##NAMES=Bobjonesite
##RRUFFID=R060530
##IDEAL CHEMISTRY=V^4+^OSO_4_&#183;3H_2_O
##LOCALITY=Petrified log in the North Mesa 5 mine, Temple Mountain, Emery County, Utah, USA
##OWNER=RRUFF
##SOURCE=Michael Scott
##DESCRIPTION=Blue granular crystals
##STATUS=The identification of this mineral has been confirmed by single-crystal X-ray diffraction.
##URL=rruff.info/R060530
125.862, 0.000
126.344, 38.819
126.826, 63.657
127.308, 41.394
127.791, 3.689
128.273, 8.520
128.755, 1.695
129.237, 23.188
129.719, 59.426
130.201, 103.115
130.683, 129.052
131.165, 129.925
131.648, 122.446
132.130, 138.389
132.612, 177.719
133.094, 222.534
133.576, 257.722
134.058, 283.333
134.540, 319.799
135.022, 374.214
135.504, 441.448
135.986, 497.356
136.469, 542.667
136.951, 579.470
137.433, 607.677
137.915, 624.670
138.397, 643.630
138.879, 667.547
139.361, 695.944
139.844, 726.910
140.326, 757.689
140.808, 794.528
141.290, 849.453
141.772, 929.340
142.254, 1011.104
142.736, 1085.503
143.218, 1153.525
143.700, 1213.979
144.182, 1262.149
144.665, 1303.586
145.147, 1360.594
145.629, 1442.910
146.111, 1527.731
146.593, 1603.507
147.075, 1662.916
147.557, 1721.779
148.039, 1787.675
148.522, 1848.487
149.004, 1910.637
149.486, 1981.477
149.968, 2029.988
150.450, 2053.247
150.932, 2032.454
151.414, 1991.336
151.896, 1938.924
152.378, 1881.373
152.861, 1804.162
153.343, 1701.708
153.825, 1581.762
154.307, 1453.545
154.789, 1302.034
155.271, 1156.906
155.753, 1029.799
156.235, 930.204
156.717, 831.972
157.200, 715.189
157.682, 595.652
158.164, 509.431
158.646, 494.960
159.128, 496.238
159.610, 480.318
160.092, 401.563
160.574, 351.120
161.057, 351.828
161.539, 340.352
162.021, 317.379
162.503, 247.845
162.985, 238.879
163.467, 205.924
163.949, 172.170
164.431, 158.988
164.913, 140.261
165.396, 132.206
165.878, 116.007
166.360, 68.279
166.842, 10.158
167.324, 31.256
167.806, 22.186
168.288, 6.297
168.770, 19.659
169.253, 68.634
169.735, 115.929
170.217, 130.371
170.699, 124.012
171.181, 121.541
171.663, 149.426
172.145, 181.288
172.627, 184.613
173.109, 146.063
173.592, 103.329
174.074, 96.366
174.556, 116.662
175.038, 132.689
175.520, 121.971
176.002, 94.531
176.484, 67.493
176.966, 44.307
177.449, 22.220
177.931, 0.544
178.413, 23.915
178.895, 51.605
179.377, 93.170
179.859, 141.559
180.341, 179.958
180.823, 198.814
181.305, 207.320
181.788, 218.484
182.270, 231.928
182.752, 250.756
183.234, 279.840
183.716, 311.558
184.198, 342.454
184.680, 366.475
185.162, 387.171
185.645, 419.869
186.127, 466.244
186.609, 515.301
187.091, 545.064
187.573, 558.424
188.055, 579.796
188.537, 617.981
189.019, 673.153
189.501, 750.182
189.984, 855.408
190.466, 970.415
190.948, 1061.245
191.430, 1128.645
191.912, 1201.357
192.394, 1291.771
192.876, 1400.460
193.358, 1537.104
193.840, 1710.419
194.323, 1902.251
194.805, 2072.886
195.287, 2218.845
195.769, 2364.220
196.251, 2525.225
196.733, 2704.671
197.215, 2889.917
197.697, 3084.363
198.180, 3283.191
198.662, 3465.068
199.144, 3625.428
199.626, 3785.861
200.108, 3971.201
200.590, 4187.577
201.072, 4379.574
201.554, 4535.209
202.036, 4657.012
202.519, 4766.807
203.001, 4868.119
203.483, 4947.295
203.965, 4981.594
204.447, 4961.270
204.929, 4942.805
205.411, 4950.555
205.893, 4984.006
206.376, 4968.062
206.858, 4889.334
207.340, 4781.083
207.822, 4693.552
208.304, 4638.551
208.786, 4564.062
209.268, 4448.762
209.750, 4286.597
210.232, 4133.918
210.715, 4000.339
211.197, 3866.976
211.679, 3695.019
212.161, 3470.026
212.643, 3243.499
213.125, 3041.645
213.607, 2868.556
214.089, 2696.291
214.572, 2522.079
215.054, 2350.230
215.536, 2184.637
216.018, 2018.875
216.500, 1870.290
216.982, 1748.354
217.464, 1655.422
217.946, 1580.922
218.428, 1527.844
218.911, 1491.762
219.393, 1458.436
219.875, 1424.224
220.357, 1398.538
220.839, 1388.244
221.321, 1397.900
221.803, 1412.171
222.285, 1432.330
222.768, 1457.256
223.250, 1475.664
223.732, 1482.075
224.214, 1491.137
224.696, 1514.881
225.178, 1560.598
225.660, 1603.899
226.142, 1642.056
226.624, 1674.991
227.107, 1702.896
227.589, 1723.948
228.071, 1742.707
228.553, 1762.551
229.035, 1783.773
229.517, 1803.958
229.999, 1823.777
230.481, 1843.834
230.964, 1859.634
231.446, 1865.607
231.928, 1871.970
232.410, 1890.037
232.892, 1928.020
233.374, 1963.983
233.856, 1997.112
234.338, 2028.351
234.820, 2039.262
235.303, 2011.605
235.785, 1978.988
236.267, 1981.799
236.749, 2042.255
237.231, 2099.748
237.713, 2140.492
238.195, 2164.098
238.677, 2176.652
239.159, 2177.168
239.641, 2167.691
240.124, 2149.993
240.606, 2119.396
241.088, 2088.742
241.570, 2067.738
242.052, 2066.654
242.534, 2024.443
243.016, 1917.521
243.499, 1783.728
243.981, 1681.218
244.463, 1619.952
244.945, 1572.822
245.427, 1533.005
245.909, 1502.935
246.391, 1469.342
246.873, 1428.013
247.355, 1384.425
247.837, 1351.059
248.320, 1341.224
248.802, 1319.267
249.284, 1265.539
249.766, 1159.260
250.248, 1091.807
250.730, 1077.800
251.212, 1096.489
251.695, 1107.193
252.177, 1111.941
252.659, 1107.602
253.141, 1089.634
253.623, 1047.120
254.105, 1025.655
254.587, 1031.191
255.069, 1055.606
255.551, 1079.390
256.034, 1096.793
256.516, 1123.533
256.998, 1166.270
257.480, 1225.724
257.962, 1297.010
258.444, 1377.414
258.926, 1470.181
259.408, 1585.270
259.890, 1721.421
260.373, 1881.526
260.855, 2073.902
261.337, 2311.125
261.819, 2535.920
262.301, 2736.644
262.783, 2928.415
263.265, 3150.096
263.747, 3418.711
264.229, 3684.795
264.712, 3919.813
265.194, 4103.920
265.676, 4324.990
266.158, 4597.596
266.640, 4901.646
267.122, 5169.711
267.604, 5398.408
268.086, 5606.387
268.569, 5800.598
269.051, 5979.998
269.533, 6164.359
270.015, 6369.299
270.497, 6572.569
270.979, 6714.184
271.461, 6794.448
271.943, 6817.465
272.425, 6787.711
272.908, 6707.785
273.390, 6557.298
273.872, 6320.551
274.354, 6024.996
274.836, 5745.703
275.318, 5484.449
275.800, 5222.170
276.282, 4946.013
276.764, 4653.840
277.247, 4355.275
277.729, 4030.719
278.211, 3713.562
278.693, 3495.239
279.175, 3394.598
279.657, 3301.340
280.139, 3145.166
280.621, 2923.139
281.103, 2690.682
281.586, 2444.153
282.068, 2201.719
282.550, 1997.184
283.032, 1830.801
283.514, 1689.320
283.996, 1562.527
284.478, 1452.516
284.961, 1379.658
285.443, 1351.213
285.925, 1351.355
286.407, 1364.219
286.889, 1391.894
287.371, 1389.117
287.853, 1300.769
288.335, 1143.484
288.817, 1035.766
289.299, 994.599
289.782, 995.234
290.264, 999.577
290.746, 1006.677
291.228, 1013.981
291.710, 1024.488
292.192, 1038.683
292.674, 1047.997
293.156, 1047.526
293.639, 1043.686
294.121, 1048.399
294.603, 1061.379
295.085, 1076.382
295.567, 1082.754
296.049, 1089.056
296.531, 1121.827
297.013, 1192.445
297.496, 1271.419
297.978, 1313.836
298.460, 1326.672
298.942, 1342.851
299.424, 1379.398
299.906, 1433.307
300.388, 1501.097
300.870, 1584.444
301.352, 1673.043
301.835, 1759.713
302.317, 1842.474
302.799, 1917.625
303.281, 1965.104
303.763, 2008.371
304.245, 2079.317
304.727, 2183.725
305.209, 2305.816
305.691, 2451.461
306.174, 2605.436
306.656, 2735.574
307.138, 2804.000
307.620, 2852.776
308.102, 2927.710
308.584, 3037.180
309.066, 3149.469
309.548, 3247.061
310.030, 3331.799
310.513, 3409.059
310.995, 3480.562
311.477, 3547.039
311.959, 3617.426
312.441, 3696.042
312.923, 3744.688
313.405, 3726.113
313.888, 3665.954
314.370, 3602.804
314.852, 3551.346
315.334, 3499.665
315.816, 3448.416
316.298, 3399.723
316.780, 3324.209
317.262, 3200.856
317.744, 3045.695
318.227, 2879.215
318.709, 2670.111
319.191, 2483.347
319.673, 2353.999
320.155, 2285.868
320.637, 2214.492
321.119, 2142.270
321.601, 2049.221
322.083, 1917.886
322.566, 1704.262
323.048, 1490.969
323.530, 1284.168
324.012, 1084.285
324.494, 931.472
324.976, 860.816
325.458, 822.647
325.940, 780.455
326.422, 730.718
326.905, 677.495
327.387, 622.946
327.869, 566.302
328.351, 500.139
328.833, 401.887
329.315, 310.195
329.797, 248.664
330.279, 248.422
330.762, 234.778
331.244, 197.522
331.726, 141.753
332.208, 94.528
332.690, 54.641
333.172, 24.967
333.654, 7.984
334.136, 10.598
334.618, 11.861
335.101, 13.040
335.583, 12.030
336.065, 0.118
336.547, 29.032
337.029, 55.936
337.511, 68.924
337.993, 62.822
338.475, 66.710
338.957, 86.073
339.440, 111.897
339.922, 122.383
340.404, 113.776
340.886, 107.849
341.368, 118.104
341.850, 145.866
342.332, 159.906
342.815, 156.932
343.297, 146.926
343.779, 143.664
344.261, 147.124
344.743, 155.356
345.225, 174.447
345.707, 199.209
346.189, 203.117
346.671, 184.201
347.154, 151.232
347.636, 100.222
348.118, 38.176
348.600, 1.484
349.082, 23.285
349.564, 74.119
350.046, 90.203
350.528, 72.083
351.010, 42.168
351.492, 19.152
351.975, 1.112
352.457, 28.687
352.939, 79.138
353.421, 126.602
353.903, 131.492
354.385, 99.229
354.867, 70.206
355.349, 81.247
355.832, 109.737
356.314, 125.835
356.796, 115.136
357.278, 101.441
357.760, 103.152
358.242, 117.184
358.724, 132.242
359.206, 138.729
359.689, 146.112
360.171, 161.447
360.653, 185.933
361.135, 218.294
361.617, 267.883
362.099, 324.343
362.581, 367.466
363.063, 370.469
363.545, 373.813
364.028, 399.548
364.510, 458.274
364.992, 511.571
365.474, 548.829
365.956, 576.758
366.438, 604.046
366.920, 625.383
367.402, 653.581
367.884, 697.308
368.367, 762.914
368.849, 811.601
369.331, 826.034
369.813, 832.689
370.295, 856.103
370.777, 914.094
371.259, 963.563
371.741, 993.122
372.224, 1004.001
372.706, 1029.137
373.188, 1082.103
373.670, 1131.075
374.152, 1147.556
374.634, 1113.827
375.116, 1099.235
375.598, 1120.143
376.081, 1162.678
376.563, 1173.740
377.045, 1143.502
377.527, 1112.451
378.009, 1113.341
378.491, 1149.055
378.973, 1152.108
379.455, 1109.920
379.937, 1047.960
380.419, 1017.148
380.902, 1018.494
381.384, 1009.398
381.866, 956.101
382.348, 871.473
382.830, 817.342
383.312, 797.649
383.794, 794.046
384.276, 794.711
384.759, 795.774
385.241, 782.776
385.723, 731.049
386.205, 669.088
386.687, 649.706
387.169, 671.175
387.651, 686.831
388.133, 643.067
388.616, 572.533
389.098, 525.169
389.580, 531.994
390.062, 550.290
390.544, 548.056
391.026, 528.885
391.508, 509.133
391.990, 504.664
392.472, 500.774
392.954, 484.605
393.437, 446.212
393.919, 409.638
394.401, 385.021
394.883, 368.893
395.365, 354.244
395.847, 342.694
396.329, 330.712
396.811, 316.333
397.294, 299.232
397.776, 279.150
398.258, 253.641
398.740, 226.708
399.222, 202.785
399.704, 188.000
400.186, 167.339
400.668, 134.354
401.151, 87.866
401.633, 57.238
402.115, 48.460
402.597, 48.630
403.079, 48.720
403.561, 52.073
404.043, 47.302
404.525, 32.227
405.007, 10.553
405.490, 4.990
405.972, 13.216
406.454, 18.094
406.936, 26.283
407.418, 40.129
407.900, 45.132
408.382, 35.848
408.864, 19.825
409.346, 12.538
409.829, 13.882
410.311, 14.158
410.793, 8.635
411.275, 1.449
411.757, 14.484
412.239, 29.877
412.721, 43.224
413.203, 43.158
413.685, 38.623
414.168, 52.107
414.650, 109.252
415.132, 172.522
415.614, 198.892
416.096, 191.777
416.578, 177.830
417.060, 167.587
417.543, 161.689
418.025, 162.026
418.507, 173.617
418.989, 183.136
419.471, 180.467
419.953, 169.830
420.435, 161.990
420.917, 160.029
421.399, 162.938
421.882, 171.466
422.364, 187.851
422.846, 203.367
423.328, 214.124
423.810, 224.602
424.292, 240.170
424.774, 272.370
425.256, 298.221
425.738, 311.045
426.221, 310.664
426.703, 317.009
427.185, 331.155
427.667, 350.566
428.149, 373.062
428.631, 397.551
429.113, 427.770
429.595, 466.934
430.078, 510.024
430.560, 539.308
431.042, 548.257
431.524, 569.335
432.006, 630.544
432.488, 730.409
432.970, 797.983
433.452, 826.894
433.934, 839.253
434.417, 854.869
434.899, 876.034
435.381, 919.679
435.863, 1011.015
436.345, 1121.094
436.827, 1184.670
437.309, 1203.600
437.791, 1223.994
438.273, 1283.004
438.756, 1367.565
439.238, 1458.756
439.720, 1555.742
440.202, 1651.233
440.684, 1739.108
441.166, 1820.537
441.648, 1899.417
442.130, 1981.220
442.612, 2057.537
443.095, 2116.431
443.577, 2149.328
444.059, 2197.562
444.541, 2288.090
445.023, 2396.582
445.505, 2494.258
445.987, 2578.322
446.470, 2647.449
446.952, 2691.319
447.434, 2710.356
447.916, 2755.154
448.398, 2844.825
448.880, 2942.348
449.362, 3025.430
449.844, 3085.835
450.326, 3149.062
450.809, 3220.289
451.291, 3293.588
451.773, 3351.758
452.255, 3391.438
452.737, 3428.529
453.219, 3470.007
453.701, 3516.099
454.183, 3553.234
454.665, 3578.656
455.148, 3607.747
455.630, 3656.432
456.112, 3724.256
456.594, 3807.211
457.076, 3917.194
457.558, 4031.379
458.040, 4105.352
458.522, 4143.105
459.004, 4176.041
459.487, 4220.967
459.969, 4276.516
460.451, 4343.354
460.933, 4426.615
461.415, 4504.207
461.897, 4560.501
462.379, 4598.617
462.861, 4622.241
463.344, 4614.355
463.826, 4608.324
464.308, 4626.205
464.790, 4669.718
465.272, 4700.967
465.754, 4701.107
466.236, 4691.236
466.718, 4686.147
467.201, 4689.670
467.683, 4693.806
468.165, 4698.066
468.647, 4702.400
469.129, 4706.802
469.611, 4710.268
470.093, 4714.375
470.575, 4722.795
471.057, 4739.045
471.539, 4731.291
472.022, 4689.414
472.504, 4640.121
472.986, 4626.852
473.468, 4653.855
473.950, 4647.734
474.432, 4582.380
474.914, 4476.551
475.396, 4387.060
475.879, 4313.369
476.361, 4216.527
476.843, 4041.703
477.325, 3828.251
477.807, 3663.304
478.289, 3569.884
478.771, 3483.927
479.253, 3336.016
479.736, 3151.601
480.218, 2979.679
480.700, 2847.881
481.182, 2732.169
481.664, 2614.673
482.146, 2495.823
482.628, 2392.129
483.110, 2314.613
483.592, 2251.534
484.074, 2194.638
484.557, 2163.976
485.039, 2107.539
485.521, 1995.100
486.003, 1851.796
486.485, 1740.785
486.967, 1688.684
487.449, 1638.054
487.931, 1570.158
488.414, 1483.104
488.896, 1408.888
489.378, 1354.896
489.860, 1303.151
490.342, 1232.498
490.824, 1138.571
491.306, 1063.421
491.788, 1015.705
492.271, 989.037
492.753, 974.804
493.235, 973.106
493.717, 966.358
494.199, 934.729
494.681, 887.544
495.163, 849.731
495.645, 825.410
496.127, 806.077
496.610, 783.038
497.092, 755.375
497.574, 724.163
498.056, 685.354
498.538, 654.465
499.020, 641.755
499.502, 641.540
499.984, 642.309
500.466, 660.641
500.949, 667.528
501.431, 638.850
501.913, 545.918
502.395, 492.012
502.877, 519.795
503.359, 577.662
503.841, 604.088
504.323, 577.754
504.806, 549.456
505.288, 527.398
505.770, 511.744
506.252, 497.134
506.734, 479.545
507.216, 468.210
507.698, 479.068
508.180, 513.469
508.663, 510.522
509.145, 458.328
509.627, 394.640
510.109, 372.052
510.591, 384.062
511.073, 403.825
511.555, 432.923
512.037, 458.821
512.519, 455.402
513.002, 426.705
513.484, 402.159
513.966, 407.176
514.448, 423.157
514.930, 431.000
515.412, 425.027
515.894, 416.778
516.376, 409.006
516.859, 402.579
517.341, 398.822
517.823, 410.725
518.305, 412.024
518.787, 387.949
519.269, 338.578
519.751, 305.190
520.233, 292.024
520.715, 291.013
521.198, 300.494
521.680, 328.251
522.162, 343.973
522.644, 345.721
523.126, 337.308
523.608, 323.032
524.090, 302.473
524.572, 281.860
525.054, 262.029
525.537, 244.426
526.019, 235.370
526.501, 234.662
526.983, 235.159
527.465, 230.153
527.947, 222.841
528.429, 219.913
528.911, 223.780
529.393, 226.251
529.876, 220.927
530.358, 209.807
530.840, 196.090
531.322, 174.607
531.804, 156.838
532.286, 153.482
532.768, 162.321
533.250, 159.444
533.732, 126.279
534.215, 91.188
534.697, 70.651
535.179, 78.157
535.661, 69.468
536.143, 31.730
536.625, 11.924
537.107, 29.719
537.589, 15.292
538.071, 3.103
538.554, 22.920
539.036, 40.680
539.518, 39.554
540.000, 18.200
540.482, 2.799
540.964, 13.278
541.446, 12.881
541.929, 9.254
542.411, 58.780
542.893, 93.712
543.375, 53.616
543.857, 26.357
544.339, 83.131
544.821, 83.113
545.303, 65.924
545.785, 49.915
546.268, 34.690
546.750, 18.400
547.232, 3.771
547.714, 23.935
548.196, 39.919
548.678, 53.557
549.160, 55.379
549.642, 40.763
550.125, 18.090
550.607, 7.690
551.089, 44.976
551.571, 61.445
552.053, 44.165
552.535, 9.478
553.017, 6.138
553.499, 37.911
553.981, 61.687
554.464, 44.372
554.946, 0.724
555.428, 4.453
555.910, 30.151
556.392, 59.704
556.874, 32.548
557.356, 22.157
557.838, 58.768
558.320, 67.469
558.803, 54.773
559.285, 7.489
559.767, 56.386
560.249, 101.762
560.731, 110.301
561.213, 104.849
561.695, 89.170
562.177, 63.601
562.659, 43.896
563.142, 42.716
563.624, 37.280
564.106, 12.736
564.588, 47.367
565.070, 81.384
565.552, 84.611
566.034, 68.031
566.516, 39.784
566.998, 2.002
567.481, 24.582
567.963, 14.167
568.445, 16.908
568.927, 49.304
569.409, 81.532
569.891, 98.742
570.373, 74.404
570.856, 37.490
571.338, 29.368
571.820, 56.218
572.302, 84.080
572.784, 88.415
573.266, 84.080
573.748, 86.629
574.230, 109.130
574.712, 128.112
575.195, 137.698
575.677, 140.076
576.159, 140.456
576.641, 135.158
577.123, 133.963
577.605, 141.671
578.087, 158.339
578.569, 168.851
579.052, 171.274
579.534, 173.270
580.016, 179.078
580.498, 189.057
580.980, 207.170
581.462, 234.515
581.944, 267.301
582.426, 310.207
582.908, 355.918
583.391, 381.829
583.873, 359.994
584.355, 332.602
584.837, 342.460
585.319, 380.511
585.801, 411.605
586.283, 403.242
586.765, 395.211
587.247, 413.661
587.730, 468.485
588.212, 515.321
588.694, 551.429
589.176, 575.972
589.658, 586.166
590.140, 571.963
590.622, 567.555
591.104, 580.809
591.586, 600.885
592.069, 598.863
592.551, 571.463
593.033, 563.108
593.515, 596.762
593.997, 659.615
594.479, 729.309
594.961, 803.792
595.443, 853.639
595.925, 832.433
596.408, 784.339
596.890, 767.369
597.372, 793.431
597.854, 830.167
598.336, 876.741
598.818, 917.237
599.300, 932.891
599.782, 878.470
600.265, 847.200
600.747, 875.486
601.229, 939.633
601.711, 972.178
602.193, 949.711
602.675, 932.733
603.157, 943.812
603.639, 981.551
604.122, 1007.511
604.604, 1019.431
605.086, 1031.361
605.568, 1058.955
606.050, 1096.604
606.532, 1114.486
607.014, 1104.908
607.496, 1096.253
607.979, 1124.366
608.461, 1172.837
608.943, 1212.099
609.425, 1235.376
609.907, 1246.382
610.389, 1234.654
610.871, 1208.592
611.353, 1197.046
611.835, 1220.285
612.318, 1251.684
612.800, 1287.668
613.282, 1327.904
613.764, 1342.019
614.246, 1317.733
614.728, 1289.018
615.210, 1280.442
615.692, 1292.617
616.174, 1295.391
616.657, 1283.853
617.139, 1271.646
617.621, 1278.271
618.103, 1299.648
618.585, 1315.258
619.067, 1316.903
619.549, 1312.645
620.031, 1304.851
620.513, 1297.103
620.995, 1301.285
621.478, 1334.078
621.960, 1373.467
622.442, 1406.333
622.924, 1430.504
623.406, 1450.235
623.888, 1458.281
624.370, 1467.958
624.852, 1488.496
625.335, 1533.908
625.817, 1554.566
626.299, 1542.903
626.781, 1516.805
627.263, 1494.420
627.745, 1475.075
628.227, 1485.437
628.709, 1543.610
629.192, 1617.927
629.674, 1649.268
630.156, 1645.441
630.638, 1641.186
631.120, 1666.376
631.602, 1692.087
632.084, 1683.729
632.566, 1643.977
633.049, 1615.086
633.531, 1620.510
634.013, 1640.294
634.495, 1663.933
634.977, 1695.973
635.459, 1717.587
635.941, 1728.555
636.423, 1728.434
636.905, 1714.147
637.388, 1680.062
637.870, 1650.162
638.352, 1626.372
638.834, 1609.188
639.316, 1610.174
639.798, 1625.906
640.280, 1618.320
640.762, 1555.118
641.244, 1469.618
641.727, 1413.753
642.209, 1383.399
642.691, 1359.629
643.173, 1335.891
643.655, 1312.217
644.137, 1287.364
644.619, 1259.967
645.101, 1240.690
645.583, 1247.018
646.066, 1252.356
646.548, 1233.408
647.030, 1158.467
647.512, 1130.595
647.994, 1178.857
648.476, 1245.476
648.958, 1228.154
649.440, 1121.916
649.922, 1025.914
650.405, 961.682
650.887, 926.177
651.369, 934.500
651.851, 974.844
652.333, 992.893
652.815, 931.639
653.297, 851.371
653.779, 810.677
654.262, 809.258
654.744, 811.996
655.226, 816.381
655.708, 809.876
656.190, 780.623
656.672, 708.422
657.154, 665.379
657.636, 667.032
658.119, 685.156
658.601, 691.418
659.083, 682.116
659.565, 669.197
660.047, 651.961
660.529, 637.257
661.011, 633.785
661.493, 641.328
661.976, 659.581
662.458, 704.122
662.940, 744.674
663.422, 744.560
663.904, 712.244
664.386, 676.522
664.868, 630.103
665.350, 602.242
665.832, 620.390
666.315, 691.008
666.797, 728.332
667.279, 703.861
667.761, 670.144
668.243, 655.628
668.725, 664.948
669.207, 668.307
669.689, 662.303
670.171, 657.627
670.654, 666.540
671.136, 685.931
671.618, 702.771
672.100, 714.570
672.582, 722.074
673.064, 729.711
673.546, 733.936
674.028, 727.196
674.510, 693.743
674.993, 664.062
675.475, 655.247
675.957, 662.930
676.439, 663.623
676.921, 640.045
677.403, 629.660
677.885, 649.178
678.367, 695.426
678.849, 701.378
679.332, 658.125
679.814, 605.437
680.296, 567.631
680.778, 542.622
681.260, 519.876
681.742, 498.388
682.224, 481.541
682.706, 477.842
683.189, 478.969
683.671, 472.867
684.153, 454.912
684.635, 433.634
685.117, 405.488
685.599, 379.079
686.081, 366.130
686.563, 395.611
687.045, 403.275
687.528, 370.836
688.010, 317.902
688.492, 301.424
688.974, 330.470
689.456, 348.123
689.938, 326.691
690.420, 283.245
690.903, 272.524
691.385, 290.519
691.867, 298.889
692.349, 256.154
692.831, 200.733
693.313, 177.059
693.795, 187.058
694.277, 196.182
694.759, 189.672
695.242, 176.465
695.724, 161.423
696.206, 142.495
696.688, 129.833
697.170, 130.247
697.652, 129.561
698.134, 107.648
698.616, 59.972
699.098, 43.638
699.581, 73.167
700.063, 117.460
700.545, 131.486
701.027, 122.086
701.509, 109.090
701.991, 96.746
702.473, 86.765
702.955, 81.136
703.437, 81.051
703.920, 84.954
704.402, 104.916
704.884, 117.519
705.366, 114.175
705.848, 95.791
706.330, 65.599
706.812, 14.436
707.294, 30.661
707.776, 56.271
708.259, 64.034
708.741, 70.286
709.223, 74.740
709.705, 69.823
710.187, 36.101
710.669, 6.371
711.151, 18.411
711.633, 6.477
712.115, 32.158
712.598, 39.126
713.080, 35.412
713.562, 26.983
714.044, 4.729
714.526, 2.410
715.008, 21.670
715.490, 52.062
715.972, 60.252
716.455, 41.570
716.937, 20.020
717.419, 1.900
717.901, 22.781
718.383, 37.660
718.865, 47.855
719.347, 62.573
719.829, 96.893
720.312, 126.563
720.794, 119.857
721.276, 87.781
721.758, 64.837
722.240, 86.820
722.722, 104.858
723.204, 90.330
723.686, 46.200
724.169, 31.799
724.651, 68.486
725.133, 101.101
725.615, 104.342
726.097, 80.001
726.579, 51.355
727.061, 17.773
727.543, 5.686
728.025, 0.380
728.508, 22.795
728.990, 39.468
729.472, 48.496
729.954, 53.301
730.436, 58.791
730.918, 59.678
731.400, 48.850
731.882, 8.626
732.364, 5.583
732.847, 33.883
733.329, 79.974
733.811, 78.359
734.293, 14.392
734.775, 22.264
735.257, 16.903
735.739, 7.125
736.221, 17.224
736.703, 16.337
737.186, 15.254
737.668, 18.273
738.150, 21.206
738.632, 17.152
739.114, 11.004
739.596, 12.396
740.078, 39.219
740.560, 58.775
741.042, 58.466
741.525, 43.961
742.007, 31.761
742.489, 21.013
742.971, 15.060
743.453, 13.505
743.935, 17.474
744.417, 37.133
744.899, 70.977
745.382, 98.833
745.864, 97.974
746.346, 89.607
746.828, 99.178
747.310, 126.428
747.792, 158.423
748.274, 212.938
748.756, 251.479
749.239, 245.395
749.721, 182.287
750.203, 138.658
750.685, 122.881
751.167, 113.898
751.649, 96.377
752.131, 70.890
752.613, 53.347
753.096, 44.925
753.578, 40.957
754.060, 31.780
754.542, 24.956
755.024, 37.765
755.506, 80.573
755.988, 113.308
756.470, 102.514
756.952, 75.745
757.435, 62.669
757.917, 81.786
758.399, 93.475
758.881, 101.476
759.363, 97.889
759.845, 60.765
760.327, 13.438
760.809, 49.586
761.291, 23.368
761.774, 27.128
762.256, 52.522
762.738, 57.994
763.220, 55.799
763.702, 40.809
764.184, 31.649
764.666, 49.331
765.148, 78.627
765.630, 85.465
766.113, 35.778
766.595, 1.622
767.077, 4.791
767.559, 12.924
768.041, 51.959
768.523, 116.122
769.005, 154.177
769.487, 127.729
769.969, 72.275
770.452, 65.688
770.934, 99.085
771.416, 127.531
771.898, 128.718
772.380, 114.369
772.862, 83.735
773.344, 38.807
773.826, 7.227
774.309, 5.973
774.791, 7.480
775.273, 0.212
775.755, 15.869
776.237, 15.762
776.719, 4.235
777.201, 17.576
777.683, 6.459
778.166, 46.541
778.648, 48.892
779.130, 13.472
779.612, 15.838
780.094, 5.349
780.576, 33.453
781.058, 33.908
781.540, 3.427
782.023, 35.345
782.505, 62.799
782.987, 77.959
783.469, 70.593
783.951, 35.432
784.433, 19.516
784.915, 25.134
785.397, 38.502
785.879, 55.083
786.362, 70.508
786.844, 72.078
787.326, 56.376
787.808, 41.221
788.290, 37.730
788.772, 40.718
789.254, 45.761
789.736, 52.725
790.218, 59.247
790.701, 66.572
791.183, 74.273
791.665, 83.620
792.147, 94.518
792.629, 98.576
793.111, 96.388
793.593, 93.860
794.075, 92.310
794.557, 93.670
795.040, 105.079
795.522, 137.714
796.004, 159.378
796.486, 141.646
796.968, 108.980
797.450, 94.299
797.932, 121.630
798.414, 130.297
798.896, 108.832
799.379, 77.174
799.861, 68.699
800.343, 82.228
800.825, 87.069
801.307, 73.126
801.789, 57.367
802.271, 67.650
802.753, 89.681
803.235, 96.817
803.718, 54.941
804.200, 27.338
804.682, 56.679
805.164, 108.581
805.646, 116.771
806.128, 53.632
806.610, 11.809
807.093, 11.169
807.575, 33.073
808.057, 41.540
808.539, 38.763
809.021, 38.697
809.503, 48.416
809.985, 59.459
810.467, 61.995
810.949, 59.718
811.432, 60.077
811.914, 60.028
812.396, 69.173
812.878, 97.544
813.360, 134.637
813.842, 158.861
814.324, 170.622
814.806, 164.371
815.289, 131.631
815.771, 89.771
816.253, 75.646
816.735, 83.544
817.217, 92.726
817.699, 102.270
818.181, 99.606
818.663, 60.018
819.145, 6.571
819.628, 10.499
820.110, 53.597
820.592, 105.816
821.074, 127.286
821.556, 127.526
822.038, 132.002
822.520, 141.034
823.002, 157.328
823.484, 181.589
823.967, 214.029
824.449, 270.140
824.931, 335.718
825.413, 372.769
825.895, 327.629
826.377, 285.313
826.859, 289.942
827.341, 327.085
827.823, 340.607
828.306, 317.882
828.788, 296.901
829.270, 285.393
829.752, 284.151
830.234, 300.787
830.716, 332.583
831.198, 361.290
831.680, 372.761
832.162, 383.361
832.645, 418.479
833.127, 465.558
833.609, 491.624
834.091, 469.324
834.573, 446.979
835.055, 430.227
835.537, 421.796
836.019, 434.404
836.502, 475.248
836.984, 506.516
837.466, 507.416
837.948, 495.056
838.430, 498.286
838.912, 516.243
839.394, 544.010
839.876, 595.853
840.359, 635.624
840.841, 642.766
841.323, 623.407
841.805, 593.950
842.287, 537.403
842.769, 507.642
843.251, 525.512
843.733, 567.649
844.216, 567.252
844.698, 529.820
845.180, 517.895
845.662, 571.033
846.144, 638.053
846.626, 669.494
847.108, 673.523
847.590, 668.271
848.072, 646.847
848.555, 630.719
849.037, 630.805
849.519, 637.641
850.001, 630.006
850.483, 604.426
850.965, 587.196
851.447, 592.266
851.929, 598.115
852.411, 554.648
852.894, 483.488
853.376, 437.934
853.858, 461.257
854.340, 480.265
854.822, 447.986
855.304, 393.423
855.786, 370.749
856.268, 408.564
856.750, 418.769
857.233, 380.381
857.715, 326.104
858.197, 315.366
858.679, 340.788
859.161, 359.396
859.643, 358.831
860.125, 349.349
860.607, 327.464
861.089, 308.004
861.572, 311.467
862.054, 387.932
862.536, 424.098
863.018, 393.121
863.500, 331.084
863.982, 279.778
864.464, 240.223
864.946, 215.296
865.429, 207.777
865.911, 205.318
866.393, 192.903
866.875, 175.879
867.357, 162.155
867.839, 152.544
868.321, 151.229
868.803, 180.849
869.286, 205.506
869.768, 190.300
870.250, 114.075
870.732, 61.441
871.214, 34.605
871.696, 28.457
872.178, 47.334
872.660, 82.064
873.142, 107.787
873.625, 121.293
874.107, 127.662
874.589, 128.829
875.071, 124.199
875.553, 111.798
876.035, 87.452
876.517, 68.298
876.999, 55.236
877.481, 47.317
877.964, 39.573
878.446, 33.628
878.928, 58.606
879.410, 112.880
879.892, 155.438
880.374, 151.538
880.856, 127.264
881.338, 101.055
881.820, 74.890
882.303, 59.935
882.785, 66.813
883.267, 74.363
883.749, 73.669
884.231, 66.233
884.713, 65.014
885.195, 69.298
885.677, 84.739
886.159, 134.081
886.642, 188.602
887.124, 199.075
887.606, 171.729
888.088, 151.959
888.570, 190.428
889.052, 208.573
889.534, 154.564
890.016, 53.935
890.499, 25.039
890.981, 80.112
891.463, 137.057
891.945, 162.746
892.427, 176.081
892.909, 217.521
893.391, 273.829
893.873, 310.536
894.356, 296.177
894.838, 275.378
895.320, 255.609
895.802, 243.154
896.284, 249.532
896.766, 283.019
897.248, 306.527
897.730, 312.626
898.213, 309.605
898.695, 318.702
899.177, 329.941
899.659, 311.011
900.141, 241.851
900.623, 174.988
901.105, 139.721
901.587, 124.084
902.069, 116.459
902.552, 122.021
903.034, 126.483
903.516, 131.357
903.998, 131.427
904.480, 111.438
904.962, 80.423
905.444, 85.020
905.926, 131.508
906.408, 164.863
906.891, 123.831
907.373, 65.597
907.855, 42.104
908.337, 69.998
908.819, 75.906
909.301, 46.707
909.783, 14.657
910.265, 6.203
910.747, 14.732
911.230, 5.533
911.712, 52.057
912.194, 89.910
912.676, 82.529
913.158, 66.076
913.640, 74.525
914.122, 104.422
914.604, 118.977
915.086, 105.145
915.569, 86.939
916.051, 67.611
916.533, 50.631
917.015, 53.984
917.497, 74.963
917.979, 83.119
918.461, 58.275
918.943, 25.535
919.426, 0.002
919.908, 14.539
920.390, 10.695
920.872, 31.473
921.354, 68.686
921.836, 97.549
922.318, 118.082
922.800, 129.234
923.282, 130.811
923.765, 126.844
924.247, 116.953
924.729, 103.678
925.211, 82.906
925.693, 62.910
926.175, 54.807
926.657, 64.656
927.140, 75.770
927.622, 90.227
928.104, 100.648
928.586, 100.111
929.068, 88.953
929.550, 80.357
930.032, 75.145
930.514, 70.682
930.996, 61.799
931.479, 54.910
931.961, 62.467
932.443, 83.812
932.925, 89.457
933.407, 62.061
933.889, 30.209
934.371, 0.223
934.853, 27.920
935.335, 49.598
935.818, 64.926
936.300, 65.281
936.782, 38.213
937.264, 2.717
937.746, 30.154
938.228, 55.631
938.710, 63.861
939.192, 30.896
939.674, 8.002
940.157, 5.158
940.639, 12.180
941.121, 12.008
941.603, 5.213
942.085, 2.645
942.567, 8.885
943.049, 8.973
943.531, 26.248
944.013, 68.586
944.496, 81.643
944.978, 40.340
945.460, 23.533
945.942, 55.449
946.424, 87.262
946.906, 77.232
947.388, 29.426
947.870, 9.529
948.352, 17.549
948.835, 30.807
949.317, 35.670
949.799, 38.266
950.281, 44.230
950.763, 53.398
951.245, 60.133
951.727, 62.719
952.209, 66.633
952.692, 79.832
953.174, 91.846
953.656, 59.980
954.138, 7.711
954.620, 59.436
955.102, 69.066
955.584, 64.838
956.066, 70.361
956.549, 75.666
957.031, 62.809
957.513, 10.094
957.995, 24.928
958.477, 39.281
958.959, 34.287
959.441, 1.029
959.923, 55.832
960.406, 90.748
960.888, 100.500
961.370, 90.996
961.852, 40.926
962.334, 8.492
962.816, 24.684
963.298, 2.002
963.780, 33.971
964.262, 91.012
964.745, 138.096
965.227, 155.326
965.709, 152.215
966.191, 153.297
966.673, 157.670
967.155, 161.986
967.637, 165.875
968.119, 167.783
968.601, 163.135
969.084, 159.561
969.566, 173.523
970.048, 211.066
970.530, 232.922
971.012, 227.168
971.494, 216.484
971.976, 234.846
972.458, 271.033
972.940, 301.535
973.423, 316.012
973.905, 341.555
974.387, 400.975
974.869, 465.264
975.351, 508.455
975.833, 524.193
976.315, 580.758
976.797, 681.887
977.279, 779.949
977.762, 835.908
978.244, 874.584
978.726, 919.256
979.208, 971.393
979.690, 1040.650
980.172, 1131.428
980.654, 1240.953
981.136, 1373.385
981.619, 1519.332
982.101, 1644.014
982.583, 1751.346
983.065, 1890.562
983.547, 2074.832
984.029, 2299.234
984.511, 2558.977
984.993, 2851.582
985.476, 3170.340
985.958, 3482.008
986.440, 3892.250
986.922, 4425.879
987.404, 5013.906
987.886, 5595.057
988.368, 6181.729
988.850, 6813.986
989.333, 7498.494
989.815, 8225.740
990.297, 9010.570
990.779, 9826.229
991.261, 10639.305
991.743, 11465.861
992.225, 12376.730
992.707, 13374.053
993.189, 14468.611
993.672, 15661.842
994.154, 16938.055
994.636, 18259.799
995.118, 19648.406
995.600, 21101.271
996.082, 22614.885
996.564, 24238.312
997.046, 26043.225
997.528, 27929.541
998.011, 29897.244
998.493, 32016.254
998.975, 33847.211
999.457, 35443.156
999.939, 36208.277
1000.421, 35657.363
1000.903, 33986.074
1001.385, 31105.873
1001.867, 27117.689
1002.350, 23237.654
1002.832, 19513.326
1003.314, 16308.207
1003.796, 13754.787
1004.278, 11766.410
1004.760, 10222.641
1005.242, 9092.512
1005.724, 8257.734
1006.207, 7723.094
1006.689, 7370.096
1007.171, 7173.504
1007.653, 7090.434
1008.135, 7080.275
1008.617, 7160.484
1009.099, 7251.805
1009.581, 7356.199
1010.063, 7466.293
1010.546, 7579.117
1011.028, 7689.305
1011.510, 7777.498
1011.992, 7849.639
1012.474, 7951.605
1012.956, 8102.752
1013.438, 8293.896
1013.920, 8499.395
1014.403, 8741.898
1014.885, 9113.252
1015.367, 9616.229
1015.849, 10153.477
1016.331, 10689.279
1016.813, 11255.662
1017.295, 11871.506
1017.777, 12551.109
1018.259, 13313.197
1018.742, 14210.357
1019.224, 15100.080
1019.706, 15962.977
1020.188, 16833.422
1020.670, 17830.275
1021.152, 18880.293
1021.634, 19620.129
1022.116, 20027.582
1022.599, 20020.383
1023.081, 19499.971
1023.563, 18590.021
1024.045, 17223.244
1024.527, 15504.229
1025.009, 13809.104
1025.491, 12101.396
1025.973, 10543.463
1026.455, 9154.047
1026.938, 7935.633
1027.420, 6924.510
1027.902, 6093.289
1028.384, 5412.730
1028.866, 4904.615
1029.348, 4452.270
1029.830, 4049.713
1030.312, 3672.986
1030.794, 3303.250
1031.277, 2943.268
1031.759, 2653.699
1032.241, 2430.629
1032.723, 2209.908
1033.205, 1878.205
1033.687, 1609.469
1034.169, 1483.703
1034.651, 1454.018
1035.134, 1402.982
1035.616, 1330.975
1036.098, 1168.627
1036.580, 1113.412
1037.062, 1012.482
1037.544, 933.807
1038.026, 909.537
1038.508, 872.242
1038.990, 810.615
1039.473, 776.852
1039.955, 836.471
1040.437, 884.926
1040.919, 862.941
1041.401, 782.521
1041.883, 739.922
1042.365, 734.719
1042.847, 746.014
1043.329, 764.455
1043.812, 796.273
1044.294, 863.023
1044.776, 942.137
1045.258, 992.713
1045.740, 968.920
1046.222, 1004.531
1046.704, 1122.100
1047.186, 1255.520
1047.669, 1328.846
1048.151, 1369.119
1048.633, 1446.262
1049.115, 1561.920
1049.597, 1673.650
1050.079, 1725.619
1050.561, 1810.418
1051.043, 1969.418
1051.526, 2187.135
1052.008, 2412.801
1052.490, 2646.756
1052.972, 2859.623
1053.454, 3030.994
1053.936, 3212.334
1054.418, 3458.600
1054.900, 3740.877
1055.382, 4023.146
1055.865, 4301.438
1056.347, 4576.312
1056.829, 4839.988
1057.311, 5119.648
1057.793, 5437.564
1058.275, 5784.717
1058.757, 6142.516
1059.239, 6507.512
1059.721, 6860.848
1060.204, 7173.061
1060.686, 7501.398
1061.168, 7858.443
1061.650, 8240.645
1062.132, 8644.152
1062.614, 9070.701
1063.096, 9510.641
1063.578, 9968.055
1064.061, 10424.936
1064.543, 10894.744
1065.025, 11342.582
1065.507, 11760.119
1065.989, 12139.812
1066.471, 12398.006
1066.953, 12548.193
1067.435, 12539.658
1067.917, 12364.221
1068.400, 12004.604
1068.882, 11390.445
1069.364, 10581.131
1069.846, 9682.092
1070.328, 8663.383
1070.810, 7712.490
1071.292, 6878.943
1071.774, 6108.914
1072.256, 5366.359
1072.739, 4650.785
1073.221, 4024.922
1073.703, 3488.119
1074.185, 3026.986
1074.667, 2652.469
1075.149, 2326.324
1075.631, 2025.568
1076.113, 1756.109
1076.595, 1525.734
1077.078, 1341.004
1077.560, 1167.070
1078.042, 995.174
1078.524, 839.734
1079.006, 716.531
1079.488, 618.551
1079.970, 544.787
1080.452, 497.627
1080.935, 441.980
1081.417, 374.531
1081.899, 297.291
1082.381, 202.158
1082.863, 105.082
1083.345, 59.447
1083.827, 50.104
1084.309, 27.998
1084.792, 46.240
1085.274, 96.049
1085.756, 55.549
1086.238, 6.066
1086.720, 26.791
1087.202, 125.135
1087.684, 140.904
1088.166, 74.371
1088.648, 25.783
1089.130, 97.908
1089.613, 181.158
1090.095, 178.645
1090.577, 118.119
1091.059, 94.730
1091.541, 124.322
1092.023, 155.908
1092.505, 189.162
1092.987, 198.025
1093.470, 123.379
1093.952, 17.629
1094.434, 35.666
1094.916, 24.830
1095.398, 14.875
1095.880, 21.648
1096.362, 30.502
1096.844, 38.375
1097.327, 43.529
1097.809, 33.037
1098.291, 14.920
1098.773, 21.145
1099.255, 72.404
1099.737, 122.320
1100.219, 148.529
1100.701, 164.947
1101.183, 179.264
1101.666, 190.951
1102.148, 232.156
1102.630, 302.619
1103.112, 359.555
1103.594, 367.531
1104.076, 359.887
1104.558, 340.117
1105.040, 328.619
1105.522, 377.156
1106.005, 524.328
1106.487, 606.896
1106.969, 603.215
1107.451, 569.467
1107.933, 545.877
1108.415, 537.008
1108.897, 566.037
1109.379, 627.287
1109.862, 647.588
1110.344, 554.969
1110.826, 513.293
1111.308, 575.471
1111.790, 683.564
1112.272, 733.004
1112.754, 736.904
1113.236, 726.535
1113.719, 705.643
1114.201, 687.371
1114.683, 672.725
1115.165, 668.410
1115.647, 684.074
1116.129, 713.137
1116.611, 706.336
1117.093, 667.893
1117.575, 637.457
1118.057, 624.258
1118.540, 594.234
1119.022, 601.701
1119.504, 600.107
1119.986, 589.947
1120.468, 545.453
1120.950, 545.348
1121.432, 531.580
1121.914, 497.688
1122.397, 412.807
1122.879, 329.348
1123.361, 290.643
1123.843, 281.807
1124.325, 265.742
1124.807, 242.842
1125.289, 192.580
1125.771, 177.219
1126.254, 175.906
1126.736, 185.686
1127.218, 201.693
1127.700, 219.068
1128.182, 236.248
1128.664, 241.975
1129.146, 208.014
1129.628, 199.359
1130.110, 242.133
1130.593, 305.064
1131.075, 324.422
1131.557, 310.627
1132.039, 294.557
1132.521, 282.143
1133.003, 272.115
1133.485, 263.324
1133.967, 258.438
1134.449, 259.076
1134.932, 265.451
1135.414, 275.602
1135.896, 291.635
1136.378, 315.426
1136.860, 355.193
1137.342, 395.146
1137.824, 432.258
1138.306, 459.816
1138.789, 467.822
1139.271, 450.463
1139.753, 464.309
1140.235, 508.799
1140.717, 562.408
1141.199, 628.227
1141.681, 679.156
1142.163, 686.752
1142.646, 663.072
1143.128, 637.053
1143.610, 610.008
1144.092, 601.061
1144.574, 611.695
1145.056, 624.369
1145.538, 640.154
1146.020, 652.596
1146.502, 649.291
1146.984, 626.344
1147.467, 584.289
1147.949, 507.412
1148.431, 463.281
1148.913, 465.955
1149.395, 489.506
1149.877, 516.842
1150.359, 534.279
1150.841, 506.586
1151.324, 428.617
1151.806, 387.010
1152.288, 430.113
1152.770, 457.846
1153.252, 434.801
1153.734, 380.117
1154.216, 321.902
1154.698, 269.865
1155.180, 253.359
1155.663, 287.971
1156.145, 318.797
1156.627, 334.180
1157.109, 341.402
1157.591, 348.408
1158.073, 349.465
1158.555, 301.604
1159.037, 217.184
1159.520, 153.277
1160.002, 146.195
1160.484, 143.451
1160.966, 118.400
1161.448, 90.695
1161.930, 76.920
1162.412, 73.566
1162.894, 76.342
1163.376, 86.271
1163.859, 98.367
1164.341, 113.088
1164.823, 110.033
1165.305, 68.924
1165.787, 19.324
1166.269, 5.873
1166.751, 32.801
1167.233, 41.182
1167.715, 27.449
1168.198, 23.434
1168.680, 73.799
1169.162, 125.936
1169.644, 129.492
1170.126, 97.852
1170.608, 87.230
1171.090, 100.662
1171.572, 113.375
1172.055, 119.121
1172.537, 138.953
1173.019, 223.996
1173.501, 309.926
1173.983, 321.457
1174.465, 260.875
1174.947, 236.184
1175.429, 256.674
1175.911, 278.445
1176.394, 294.482
1176.876, 297.160
1177.358, 254.141
1177.840, 206.467
1178.322, 212.246
1178.804, 287.803
1179.286, 329.580
1179.768, 328.469
1180.250, 312.865
1180.733, 284.789
1181.215, 263.738
1181.697, 294.180
1182.179, 345.844
1182.661, 368.664
1183.143, 340.104
1183.625, 326.877
1184.107, 340.428
1184.590, 343.674
1185.072, 310.463
1185.554, 262.104
1186.036, 233.068
1186.518, 218.613
1187.000, 210.725
1187.482, 213.682
1187.964, 212.605
1188.447, 209.852
1188.929, 196.877
1189.411, 157.822
1189.893, 108.465
1190.375, 85.346
1190.857, 83.287
1191.339, 86.705
1191.821, 108.408
1192.303, 102.605
1192.786, 47.068
1193.268, 0.986
1193.750, 41.123
1194.232, 125.750
1194.714, 147.561
1195.196, 113.225
1195.678, 72.096
1196.160, 33.609
1196.642, 3.539
1197.125, 17.809
1197.607, 30.443
1198.089, 34.219
1198.571, 29.451
1199.053, 9.445
1199.535, 22.695
1200.017, 38.928
1200.499, 4.018
1200.982, 13.930
1201.464, 5.764
1201.946, 39.963
1202.428, 58.516
1202.910, 61.348
1203.392, 42.420
1203.874, 1.797
1204.356, 34.242
1204.839, 61.158
1205.321, 70.385
1205.803, 53.904
1206.285, 26.641
1206.767, 16.910
1207.249, 19.207
1207.731, 19.133
1208.213, 14.174
1208.695, 1.180
1209.177, 29.738
1209.660, 54.600
1210.142, 65.467
1210.624, 65.555
1211.106, 62.025
1211.588, 53.746
1212.070, 30.699
1212.552, 18.594
1213.034, 33.545
1213.517, 45.836
1213.999, 117.469
1214.481, 139.346
1214.963, 124.377
1215.445, 98.312
1215.927, 66.578
1216.409, 45.426
1216.891, 42.701
1217.374, 41.707
1217.856, 44.105
1218.338, 37.992
1218.820, 8.717
1219.302, 28.572
1219.784, 8.164
1220.266, 45.586
1220.748, 55.105
1221.230, 48.914
1221.713, 95.764
1222.195, 10.545
1222.677, 82.826
1223.159, 101.668
1223.641, 71.910
1224.123, 86.344
1224.605, 128.420
1225.087, 148.141
1225.569, 110.395
1226.052, 74.488
1226.534, 30.666
1227.016, 20.643
1227.498, 105.580
1227.980, 240.662
1228.462, 290.803
1228.944, 270.986
1229.426, 228.334
1229.909, 142.695
1230.391, 95.809
1230.873, 107.127
1231.355, 135.264
1231.837, 137.783
1232.319, 132.461
1232.801, 181.645
1233.283, 264.514
1233.766, 307.314
1234.248, 242.953
1234.730, 195.834
1235.212, 180.758
1235.694, 175.473
1236.176, 150.291
1236.658, 123.547
1237.140, 140.889
1237.622, 191.793
1238.104, 232.484
1238.587, 248.547
1239.069, 253.666
1239.551, 247.307
1240.033, 237.068
1240.515, 237.721
1240.997, 240.693
1241.479, 233.463
1241.961, 215.217
1242.443, 182.998
1242.926, 110.703
1243.408, 86.398
1243.890, 128.012
1244.372, 191.301
1244.854, 222.496
1245.336, 242.443
1245.818, 291.467
1246.300, 358.424
1246.783, 370.842
1247.265, 284.857
1247.747, 275.037
1248.229, 381.115
1248.711, 494.117
1249.193, 497.744
1249.675, 445.803
1250.157, 394.490
1250.640, 353.463
1251.122, 312.643
1251.604, 264.670
1252.086, 244.875
1252.568, 258.797
1253.050, 264.697
1253.532, 217.838
1254.014, 164.191
1254.496, 128.035
1254.979, 110.463
1255.461, 125.279
1255.943, 175.443
1256.425, 212.098
1256.907, 225.861
1257.389, 214.582
1257.871, 170.393
1258.353, 136.291
1258.835, 166.842
1259.318, 234.082
1259.800, 257.449
1260.282, 236.041
1260.764, 210.631
1261.246, 203.303
1261.728, 168.082
1262.210, 104.793
1262.692, 50.328
1263.175, 31.062
1263.657, 37.596
1264.139, 51.928
1264.621, 72.988
1265.103, 67.158
1265.585, 22.250
1266.067, 11.746
1266.549, 4.609
1267.031, 29.678
1267.514, 44.723
1267.996, 55.125
1268.478, 78.857
1268.960, 109.383
1269.442, 118.338
1269.924, 98.947
1270.406, 104.658
1270.888, 201.871
1271.370, 266.240
1271.853, 250.426
1272.335, 197.418
1272.817, 191.357
1273.299, 216.535
1273.781, 233.637
1274.263, 237.162
1274.745, 227.615
1275.227, 199.910
1275.710, 173.270
1276.192, 152.344
1276.674, 139.439
1277.156, 150.662
1277.638, 166.834
1278.120, 149.174
1278.602, 92.455
1279.084, 81.139
1279.567, 132.584
1280.049, 169.652
1280.531, 168.492
1281.013, 157.047
1281.495, 178.664
1281.977, 200.980
1282.459, 174.408
1282.941, 104.289
1283.423, 74.457
1283.906, 78.713
1284.388, 105.293
1284.870, 157.031
1285.352, 193.213
1285.834, 145.771
1286.316, 92.170
1286.798, 111.146
1287.280, 176.609
1287.762, 169.223
1288.245, 96.277
1288.727, 52.820
1289.209, 63.273
1289.691, 88.154
1290.173, 128.365
1290.655, 145.631
1291.137, 110.508
1291.619, 51.027
1292.102, 47.969
1292.584, 84.215
1293.066, 111.717
1293.548, 120.539
1294.030, 124.969
1294.512, 136.422
1294.994, 134.080
1295.476, 106.035
1295.958, 65.932
1296.441, 23.744
1296.923, 14.689
1297.405, 5.203
1297.887, 74.625
1298.369, 102.920
1298.851, 115.668
1299.333, 86.604
1299.815, 96.336
1300.297, 101.820
1300.780, 69.578
1301.262, 0.000
##END=



