##NAMES=Caledonite
##RRUFFID=R060506
##IDEAL CHEMISTRY=Cu_2_Pb_5_(SO_4_)_3_(CO_3_)(OH)_6_
##LOCALITY=Rowley mine, Maricopa County, Arizona, USA
##OWNER=RRUFF
##SOURCE=Jim Ricker
##DESCRIPTION=Blue prismatic crystals
##STATUS=The identification of this mineral has been confirmed by single-crystal X-ray diffraction.
##URL=rruff.info/R060506
83.436, 0.000
83.918, 215.381
84.400, 198.332
84.882, 186.967
85.364, 178.671
85.846, 168.327
86.329, 157.941
86.811, 149.155
87.293, 139.346
87.775, 130.084
88.257, 127.686
88.739, 141.339
89.221, 154.725
89.703, 158.755
90.185, 152.215
90.668, 133.041
91.150, 108.689
91.632, 87.585
92.114, 68.052
92.596, 46.726
93.078, 23.641
93.560, 3.023
94.042, 11.075
94.525, 19.210
95.007, 24.386
95.489, 27.380
95.971, 28.316
96.453, 28.108
96.935, 28.084
97.417, 23.586
97.899, 8.000
98.381, 18.993
98.864, 58.102
99.346, 107.435
99.828, 166.201
100.310, 248.722
100.792, 355.746
101.274, 487.612
101.756, 652.056
102.238, 852.555
102.720, 1081.584
103.203, 1340.416
103.685, 1629.624
104.167, 1942.385
104.649, 2276.351
105.131, 2636.997
105.613, 3002.618
106.095, 3363.393
106.577, 3736.614
107.060, 4152.312
107.542, 4613.419
108.024, 5110.962
108.506, 5646.472
108.988, 6203.107
109.470, 6815.090
109.952, 7479.477
110.434, 8195.708
110.916, 8962.678
111.399, 9856.039
111.881, 10748.578
112.363, 11580.043
112.845, 12411.419
113.327, 13101.972
113.809, 13639.185
114.291, 14019.688
114.773, 14237.456
115.256, 14226.878
115.738, 14072.678
116.220, 13864.392
116.702, 13593.577
117.184, 13302.388
117.666, 13008.892
118.148, 12710.128
118.630, 12413.568
119.113, 12133.151
119.595, 11858.988
120.077, 11572.271
120.559, 11278.199
121.041, 10960.359
121.523, 10603.779
122.005, 10204.417
122.487, 9764.541
122.969, 9280.608
123.451, 8756.220
123.934, 8228.865
124.416, 7700.739
124.898, 7189.938
125.380, 6727.963
125.862, 6340.138
126.344, 6003.468
126.826, 5683.364
127.308, 5384.653
127.791, 5110.156
128.273, 4869.067
128.755, 4658.538
129.237, 4466.524
129.719, 4285.121
130.201, 4117.185
130.683, 3970.661
131.165, 3844.154
131.648, 3742.579
132.130, 3672.332
132.612, 3633.509
133.094, 3615.536
133.576, 3613.266
134.058, 3626.338
134.540, 3652.119
135.022, 3692.379
135.504, 3744.876
135.986, 3797.479
136.469, 3849.870
136.951, 3905.681
137.433, 3970.844
137.915, 4046.605
138.397, 4120.256
138.879, 4187.991
139.361, 4249.312
139.844, 4312.578
140.326, 4379.209
140.808, 4446.078
141.290, 4507.103
141.772, 4568.716
142.254, 4618.465
142.736, 4653.614
143.218, 4681.488
143.700, 4675.439
144.182, 4629.381
144.665, 4550.273
145.147, 4459.738
145.629, 4367.037
146.111, 4252.354
146.593, 4104.137
147.075, 3893.218
147.557, 3689.627
148.039, 3499.794
148.522, 3323.260
149.004, 3148.068
149.486, 2964.672
149.968, 2787.345
150.450, 2624.770
150.932, 2485.454
151.414, 2353.535
151.896, 2226.169
152.378, 2102.575
152.861, 1991.371
153.343, 1893.556
153.825, 1807.995
154.307, 1732.566
154.789, 1670.594
155.271, 1615.913
155.753, 1567.212
156.235, 1524.374
156.717, 1486.865
157.200, 1455.125
157.682, 1428.510
158.164, 1406.233
158.646, 1393.805
159.128, 1381.584
159.610, 1363.835
160.092, 1333.104
160.574, 1304.613
161.057, 1285.695
161.539, 1274.011
162.021, 1258.996
162.503, 1229.778
162.985, 1198.202
163.467, 1174.136
163.949, 1174.597
164.431, 1171.785
164.913, 1148.642
165.396, 1105.628
165.878, 1064.447
166.360, 1042.236
166.842, 1027.502
167.324, 1005.463
167.806, 962.445
168.288, 915.218
168.770, 875.320
169.253, 844.404
169.735, 817.397
170.217, 791.884
170.699, 767.917
171.181, 745.537
171.663, 722.160
172.145, 701.542
172.627, 688.136
173.109, 683.571
173.592, 683.130
174.074, 684.870
174.556, 687.891
175.038, 688.697
175.520, 683.050
176.002, 674.183
176.484, 667.555
176.966, 665.446
177.449, 664.353
177.931, 655.853
178.413, 641.404
178.895, 634.599
179.377, 651.746
179.859, 685.089
180.341, 715.989
180.823, 739.361
181.305, 756.784
181.788, 769.739
182.270, 777.983
182.752, 784.164
183.234, 794.754
183.716, 806.818
184.198, 807.829
184.680, 790.624
185.162, 758.928
185.645, 720.405
186.127, 674.504
186.609, 625.764
187.091, 578.639
187.573, 533.056
188.055, 492.187
188.537, 463.841
189.019, 443.419
189.501, 404.390
189.984, 338.847
190.466, 269.768
190.948, 240.536
191.430, 251.406
191.912, 262.406
192.394, 245.648
192.876, 204.249
193.358, 173.261
193.840, 158.572
194.323, 153.090
194.805, 139.745
195.287, 117.479
195.769, 96.044
196.251, 84.885
196.733, 84.208
197.215, 76.831
197.697, 56.844
198.180, 29.562
198.662, 14.846
199.144, 14.414
199.626, 19.758
200.108, 24.702
200.590, 29.459
201.072, 31.629
201.554, 28.754
202.036, 22.293
202.519, 25.875
203.001, 43.893
203.483, 62.385
203.965, 62.642
204.447, 38.964
204.929, 23.037
205.411, 27.068
205.893, 50.855
206.376, 62.578
206.858, 58.452
207.340, 48.102
207.822, 45.045
208.304, 51.529
208.786, 59.198
209.268, 63.173
209.750, 61.181
210.232, 73.175
210.715, 105.451
211.197, 145.018
211.679, 166.674
212.161, 163.188
212.643, 161.671
213.125, 175.662
213.607, 211.359
214.089, 236.310
214.572, 246.415
215.054, 248.290
215.536, 257.262
216.018, 274.123
216.500, 294.408
216.982, 317.049
217.464, 344.986
217.946, 368.779
218.428, 387.375
218.911, 401.344
219.393, 410.941
219.875, 410.672
220.357, 414.865
220.839, 433.740
221.321, 474.510
221.803, 510.816
222.285, 538.404
222.768, 559.454
223.250, 585.558
223.732, 621.269
224.214, 656.269
224.696, 685.035
225.178, 710.607
225.660, 723.882
226.142, 720.377
226.624, 701.070
227.107, 682.917
227.589, 661.393
228.071, 646.363
228.553, 648.402
229.035, 681.596
229.517, 704.854
229.999, 708.720
230.481, 692.457
230.964, 681.970
231.446, 681.666
231.928, 682.861
232.410, 677.092
232.892, 662.278
233.374, 643.719
233.856, 621.973
234.338, 597.478
234.820, 573.216
235.303, 545.744
235.785, 520.149
236.267, 503.962
236.749, 505.424
237.231, 503.146
237.713, 489.771
238.195, 461.754
238.677, 438.893
239.159, 455.322
239.642, 462.371
240.124, 460.498
240.606, 422.256
241.088, 430.700
241.570, 420.470
242.052, 409.498
242.534, 424.582
243.016, 391.719
243.499, 406.439
243.981, 402.198
244.463, 406.668
244.945, 392.345
245.427, 383.856
245.909, 394.209
246.391, 394.164
246.873, 377.761
247.355, 382.915
247.837, 358.198
248.320, 361.709
248.802, 365.691
249.284, 366.177
249.766, 363.420
250.248, 356.412
250.730, 343.998
251.212, 328.012
251.695, 312.286
252.177, 297.019
252.659, 281.864
253.141, 267.055
253.623, 253.925
254.105, 238.218
254.587, 220.398
255.069, 199.854
255.551, 173.287
256.034, 134.304
256.516, 101.039
256.998, 83.871
257.480, 93.106
257.962, 89.757
258.444, 68.504
258.926, 36.538
259.408, 11.568
259.890, 3.648
260.373, 17.206
260.855, 34.385
261.337, 59.215
261.819, 74.895
262.301, 79.053
262.783, 74.776
263.265, 69.646
263.747, 63.072
264.229, 56.909
264.712, 51.427
265.194, 45.588
265.676, 44.955
266.158, 52.165
266.640, 63.558
267.122, 68.404
267.604, 65.299
268.086, 59.009
268.569, 51.034
269.051, 40.055
269.533, 33.193
270.015, 32.413
270.497, 35.039
270.979, 33.113
271.461, 24.959
271.943, 16.884
272.426, 14.275
272.908, 19.183
273.390, 15.936
273.872, 1.083
274.354, 21.007
274.836, 39.150
275.318, 53.285
275.800, 64.186
276.282, 71.500
276.764, 74.801
277.247, 78.673
277.729, 83.910
278.211, 89.522
278.693, 92.682
279.175, 92.856
279.657, 93.073
280.139, 98.305
280.621, 108.967
281.104, 106.607
281.586, 85.592
282.068, 54.917
282.550, 33.474
283.032, 21.538
283.514, 16.347
283.996, 18.967
284.478, 28.881
284.961, 36.152
285.443, 40.437
285.925, 40.714
286.407, 31.989
286.889, 13.865
287.371, 1.826
287.853, 6.028
288.335, 0.244
288.817, 4.522
289.299, 6.797
289.782, 8.146
290.264, 12.871
290.746, 20.712
291.228, 25.454
291.710, 18.901
292.192, 4.841
292.674, 0.295
293.156, 8.885
293.639, 23.198
294.121, 29.594
294.603, 29.372
295.085, 34.387
295.567, 60.461
296.049, 97.301
296.531, 113.053
297.013, 96.781
297.496, 91.728
297.978, 159.192
298.460, 209.037
298.942, 242.213
299.424, 208.807
299.906, 261.339
300.388, 279.414
300.870, 296.059
301.352, 360.647
301.835, 336.859
302.317, 400.658
302.799, 429.472
303.281, 450.165
303.763, 500.523
304.245, 538.030
304.727, 558.168
305.209, 577.194
305.691, 610.896
306.174, 654.461
306.656, 697.295
307.138, 730.764
307.620, 763.192
308.102, 805.547
308.584, 860.964
309.066, 913.269
309.548, 949.731
310.030, 976.171
310.513, 1003.666
310.995, 1034.503
311.477, 1069.243
311.959, 1111.655
312.441, 1163.274
312.923, 1210.281
313.405, 1241.135
313.888, 1262.348
314.370, 1283.329
314.852, 1313.582
315.334, 1340.883
315.816, 1357.332
316.298, 1362.016
316.780, 1360.844
317.262, 1353.959
317.744, 1344.230
318.227, 1334.868
318.709, 1328.637
319.191, 1319.711
319.673, 1308.746
320.155, 1296.586
320.637, 1275.320
321.119, 1231.984
321.601, 1183.378
322.083, 1145.360
322.566, 1135.761
323.048, 1122.099
323.530, 1094.311
324.012, 1051.510
324.494, 1009.121
324.976, 961.695
325.458, 920.210
325.940, 892.514
326.422, 899.831
326.905, 898.337
327.387, 875.428
327.869, 832.769
328.351, 806.549
328.833, 811.628
329.315, 822.986
329.797, 825.766
330.279, 812.909
330.762, 800.156
331.244, 785.514
331.726, 771.848
332.208, 772.152
332.690, 791.810
333.172, 817.513
333.654, 842.943
334.136, 868.937
334.618, 893.148
335.101, 915.177
335.583, 935.489
336.065, 953.592
336.547, 964.750
337.029, 982.871
337.511, 1017.918
337.993, 1075.746
338.475, 1124.987
338.957, 1164.399
339.440, 1195.079
339.922, 1215.703
340.404, 1223.124
340.886, 1232.293
341.368, 1254.975
341.850, 1293.024
342.332, 1312.703
342.815, 1312.222
343.297, 1297.575
343.779, 1274.164
344.261, 1241.620
344.743, 1209.884
345.225, 1189.076
345.707, 1175.189
346.189, 1138.660
346.671, 1076.728
347.154, 1008.451
347.636, 956.035
348.118, 917.255
348.600, 876.920
349.082, 831.183
349.564, 778.852
350.046, 711.445
350.528, 628.912
351.010, 555.627
351.493, 523.918
351.975, 517.176
352.457, 498.402
352.939, 448.237
353.421, 388.886
353.903, 344.362
354.385, 313.187
354.867, 288.195
355.349, 268.882
355.832, 252.121
356.314, 232.406
356.796, 204.197
357.278, 179.272
357.760, 171.273
358.242, 175.500
358.724, 175.189
359.206, 157.868
359.689, 134.802
360.171, 115.121
360.653, 102.852
361.135, 88.853
361.617, 63.268
362.099, 33.232
362.581, 12.983
363.063, 16.424
363.546, 23.498
364.028, 23.949
364.510, 13.868
364.992, 6.293
365.474, 9.268
365.956, 15.138
366.438, 12.932
366.920, 12.162
367.402, 32.478
367.884, 38.605
368.367, 26.825
368.849, 19.572
369.331, 22.341
369.813, 26.954
370.295, 25.393
370.777, 7.259
371.259, 1.880
371.741, 7.197
372.224, 33.310
372.706, 42.957
373.188, 25.705
373.670, 5.225
374.152, 0.631
374.634, 19.739
375.116, 32.218
375.598, 33.338
376.081, 25.987
376.563, 20.291
377.045, 16.663
377.527, 13.332
378.009, 8.129
378.491, 0.871
378.973, 2.269
379.455, 0.561
379.937, 4.728
380.419, 13.158
380.902, 24.687
381.384, 33.304
381.866, 34.607
382.348, 29.993
382.830, 26.889
383.312, 26.152
383.794, 23.014
384.276, 7.576
384.759, 16.292
385.241, 33.602
385.723, 30.902
386.205, 21.030
386.687, 25.625
387.169, 44.314
387.651, 63.192
388.133, 68.511
388.616, 67.309
389.098, 70.385
389.580, 82.604
390.062, 98.393
390.544, 114.644
391.026, 131.285
391.508, 148.329
391.990, 169.127
392.472, 188.614
392.955, 201.529
393.437, 201.912
393.919, 205.266
394.401, 218.197
394.883, 238.528
395.365, 261.425
395.847, 289.583
396.329, 317.036
396.811, 338.745
397.294, 348.792
397.776, 371.507
398.258, 423.244
398.740, 484.696
399.222, 531.581
399.704, 544.343
400.186, 563.664
400.668, 599.017
401.151, 651.419
401.633, 700.425
402.115, 739.575
402.597, 781.863
403.079, 839.824
403.561, 921.379
404.043, 998.352
404.525, 1063.884
405.008, 1122.847
405.490, 1194.650
405.972, 1282.021
406.454, 1375.746
406.936, 1469.630
407.418, 1563.199
407.900, 1668.524
408.382, 1785.329
408.864, 1913.860
409.346, 2056.163
409.829, 2213.335
410.311, 2374.124
410.793, 2536.973
411.275, 2701.640
411.757, 2865.602
412.239, 3026.575
412.721, 3194.791
413.203, 3385.176
413.686, 3590.829
414.168, 3794.794
414.650, 3988.049
415.132, 4180.882
415.614, 4391.649
416.096, 4616.337
416.578, 4840.359
417.060, 5057.517
417.543, 5265.462
418.025, 5455.695
418.507, 5610.537
418.989, 5774.951
419.471, 5989.279
419.953, 6231.227
420.435, 6442.375
420.917, 6594.659
421.399, 6720.640
421.882, 6837.112
422.364, 6948.714
422.846, 7040.064
423.328, 7090.359
423.810, 7126.797
424.292, 7182.245
424.774, 7295.763
425.256, 7387.693
425.738, 7455.375
426.221, 7499.021
426.703, 7486.562
427.185, 7409.544
427.667, 7284.398
428.149, 7116.562
428.631, 6886.698
429.113, 6669.331
429.595, 6469.692
430.078, 6287.024
430.560, 6119.336
431.042, 5970.354
431.524, 5830.674
432.006, 5695.143
432.488, 5562.508
432.970, 5439.726
433.452, 5328.632
433.934, 5225.461
434.417, 5135.521
434.899, 5054.135
435.381, 4947.060
435.863, 4781.342
436.345, 4590.607
436.827, 4448.483
437.309, 4352.800
437.791, 4255.885
438.273, 4114.512
438.756, 3946.787
439.238, 3778.944
439.720, 3610.018
440.202, 3456.618
440.684, 3333.708
441.166, 3236.714
441.648, 3152.967
442.130, 3087.563
442.612, 3026.298
443.095, 2955.374
443.577, 2864.609
444.059, 2799.502
444.541, 2792.726
445.023, 2813.418
445.505, 2824.573
445.987, 2803.734
446.470, 2788.878
446.952, 2788.424
447.434, 2802.689
447.916, 2823.607
448.398, 2852.749
448.880, 2886.927
449.362, 2924.950
449.844, 2969.329
450.326, 3010.332
450.809, 3042.312
451.291, 3073.737
451.773, 3125.261
452.255, 3199.831
452.737, 3285.029
453.219, 3379.288
453.701, 3483.250
454.183, 3574.832
454.665, 3654.404
455.148, 3724.539
455.630, 3800.875
456.112, 3876.997
456.594, 3905.317
457.076, 3871.052
457.558, 3783.951
458.040, 3652.807
458.522, 3480.947
459.004, 3285.504
459.487, 3062.855
459.969, 2830.565
460.451, 2611.111
460.933, 2404.167
461.415, 2225.276
461.897, 2096.463
462.379, 2004.871
462.862, 1932.010
463.344, 1866.766
463.826, 1821.373
464.308, 1805.982
464.790, 1821.610
465.272, 1848.728
465.754, 1877.744
466.236, 1917.973
466.718, 1976.462
467.201, 2069.554
467.683, 2161.938
468.165, 2248.846
468.647, 2333.476
469.129, 2427.022
469.611, 2531.447
470.093, 2641.158
470.575, 2757.995
471.057, 2884.680
471.539, 2994.985
472.022, 3091.017
472.504, 3167.168
472.986, 3217.901
473.468, 3243.300
473.950, 3236.083
474.432, 3194.639
474.914, 3119.654
475.397, 3003.029
475.879, 2845.642
476.361, 2680.925
476.843, 2536.284
477.325, 2402.316
477.807, 2251.542
478.289, 2074.415
478.771, 1899.987
479.253, 1756.909
479.736, 1638.741
480.218, 1532.219
480.700, 1436.271
481.182, 1345.789
481.664, 1255.970
482.146, 1167.522
482.628, 1089.715
483.110, 1032.021
483.592, 983.289
484.075, 935.025
484.557, 878.958
485.039, 828.592
485.521, 790.750
486.003, 761.212
486.485, 729.260
486.967, 695.207
487.449, 658.467
487.931, 616.750
488.414, 569.015
488.896, 532.841
489.378, 511.040
489.860, 496.787
490.342, 485.802
490.824, 478.404
491.306, 464.560
491.788, 440.435
492.271, 412.917
492.753, 403.765
493.235, 412.320
493.717, 414.216
494.199, 385.895
494.681, 341.220
495.163, 314.184
495.645, 308.627
496.128, 306.311
496.610, 290.113
497.092, 265.821
497.574, 243.146
498.056, 225.583
498.538, 210.445
499.020, 194.291
499.502, 178.517
499.984, 168.445
500.466, 171.117
500.949, 176.110
501.431, 178.076
501.913, 176.763
502.395, 172.011
502.877, 161.165
503.359, 147.225
503.841, 135.133
504.323, 128.223
504.806, 118.056
505.288, 100.536
505.770, 77.576
506.252, 65.098
506.734, 66.200
507.216, 69.875
507.698, 68.954
508.180, 63.186
508.663, 58.905
509.145, 56.740
509.627, 55.499
510.109, 54.964
510.591, 54.541
511.073, 50.397
511.555, 39.253
512.037, 24.625
512.519, 7.621
513.002, 10.084
513.484, 17.496
513.966, 6.480
514.448, 37.386
514.930, 48.751
515.412, 29.910
515.894, 9.200
516.376, 2.991
516.859, 8.180
517.341, 8.714
517.823, 0.143
518.305, 7.926
518.787, 13.594
519.269, 16.699
519.751, 16.221
520.233, 10.823
520.715, 3.250
521.198, 5.309
521.680, 15.889
522.162, 24.845
522.644, 32.783
523.126, 38.221
523.608, 37.922
524.090, 31.362
524.572, 24.580
525.054, 18.499
525.537, 14.087
526.019, 15.769
526.501, 23.377
526.983, 31.197
527.465, 37.442
527.947, 40.360
528.429, 34.422
528.911, 15.681
529.393, 0.477
529.876, 6.325
530.358, 23.488
530.840, 36.268
531.322, 35.825
531.804, 32.332
532.286, 29.997
532.768, 28.733
533.250, 26.400
533.732, 21.058
534.215, 15.636
534.697, 12.465
535.179, 16.572
535.661, 10.616
536.143, 14.226
536.625, 42.426
537.107, 52.184
537.589, 38.631
538.072, 24.267
538.554, 13.417
539.036, 5.797
539.518, 0.852
540.000, 1.324
540.482, 3.493
540.964, 11.523
541.446, 20.912
541.929, 15.809
542.411, 7.245
542.893, 29.262
543.375, 27.825
543.857, 13.375
544.339, 4.582
544.821, 11.270
545.303, 22.093
545.786, 35.575
546.268, 49.024
546.750, 52.674
547.232, 27.696
547.714, 5.065
548.196, 2.072
548.678, 28.740
549.160, 44.471
549.642, 43.829
550.125, 35.551
550.607, 26.443
551.089, 13.522
551.571, 7.815
552.053, 12.303
552.535, 23.780
553.017, 34.681
553.499, 45.087
553.981, 54.018
554.464, 62.040
554.946, 68.310
555.428, 68.638
555.910, 62.894
556.392, 55.392
556.874, 46.562
557.356, 39.250
557.838, 39.705
558.320, 54.780
558.803, 66.267
559.285, 54.605
559.767, 31.004
560.249, 17.032
560.731, 29.691
561.213, 43.924
561.695, 49.850
562.177, 47.032
562.659, 46.303
563.142, 50.898
563.624, 55.281
564.106, 55.628
564.588, 47.491
565.070, 48.007
565.552, 60.642
566.034, 77.212
566.516, 86.955
566.999, 89.749
567.481, 86.468
567.963, 72.909
568.445, 57.249
568.927, 61.857
569.409, 84.368
569.891, 102.891
570.373, 97.191
570.856, 82.050
571.338, 78.891
571.820, 91.525
572.302, 101.925
572.784, 92.869
573.266, 78.608
573.748, 73.841
574.230, 89.144
574.713, 106.305
575.195, 127.156
575.677, 147.553
576.159, 154.089
576.641, 132.189
577.123, 116.604
577.605, 121.054
578.087, 145.344
578.569, 153.382
579.052, 138.719
579.534, 123.894
580.016, 131.451
580.498, 159.287
580.980, 172.607
581.462, 165.770
581.944, 153.593
582.426, 153.833
582.908, 163.957
583.391, 176.188
583.873, 187.069
584.355, 198.198
584.837, 210.977
585.319, 225.396
585.801, 241.772
586.283, 264.719
586.765, 287.640
587.247, 304.838
587.730, 312.036
588.212, 322.049
588.694, 335.579
589.176, 354.853
589.658, 381.742
590.140, 422.666
590.622, 456.352
591.104, 478.143
591.586, 494.686
592.069, 520.363
592.551, 555.710
593.033, 592.927
593.515, 629.378
593.997, 667.192
594.479, 709.118
594.961, 755.407
595.443, 807.265
595.925, 876.120
596.408, 946.956
596.890, 997.674
597.372, 1021.095
597.854, 1044.479
598.336, 1081.314
598.818, 1127.173
599.300, 1176.248
599.782, 1237.160
600.265, 1293.116
600.747, 1342.559
601.229, 1383.372
601.711, 1411.780
602.193, 1428.462
602.675, 1431.660
603.157, 1419.016
603.639, 1391.131
604.122, 1356.179
604.604, 1310.854
605.086, 1269.287
605.568, 1245.435
606.050, 1235.784
606.532, 1223.831
607.014, 1206.971
607.496, 1185.869
607.979, 1163.389
608.461, 1137.076
608.943, 1101.534
609.425, 1053.927
609.907, 998.165
610.389, 931.245
610.871, 857.911
611.353, 789.824
611.835, 728.578
612.318, 675.361
612.800, 631.743
613.282, 597.936
613.764, 570.087
614.246, 548.835
614.728, 532.764
615.210, 519.572
615.692, 508.096
616.174, 514.521
616.657, 544.650
617.139, 579.436
617.621, 587.183
618.103, 574.555
618.585, 574.164
619.067, 603.077
619.549, 639.865
620.031, 655.130
620.513, 656.746
620.996, 669.323
621.478, 712.442
621.960, 764.357
622.442, 811.772
622.924, 853.801
623.406, 899.829
623.888, 952.807
624.370, 1009.043
624.852, 1066.415
625.335, 1121.157
625.817, 1185.604
626.299, 1262.733
626.781, 1345.832
627.263, 1428.851
627.745, 1511.897
628.227, 1595.300
628.709, 1693.315
629.192, 1771.452
629.674, 1772.423
630.156, 1700.469
630.638, 1574.016
631.120, 1361.149
631.602, 1126.801
632.084, 924.499
632.566, 755.401
633.049, 613.111
633.531, 504.185
634.013, 417.260
634.495, 346.943
634.977, 293.182
635.459, 251.243
635.941, 225.823
636.423, 209.034
636.906, 192.782
637.388, 175.474
637.870, 162.275
638.352, 154.536
638.834, 150.998
639.316, 151.766
639.798, 156.067
640.280, 155.265
640.762, 142.197
641.245, 124.133
641.727, 112.714
642.209, 106.827
642.691, 101.229
643.173, 91.324
643.655, 81.761
644.137, 78.338
644.619, 83.822
645.101, 80.664
645.584, 52.860
646.066, 22.754
646.548, 7.171
647.030, 15.041
647.512, 18.680
647.994, 14.902
648.476, 9.050
648.958, 10.072
649.440, 18.191
649.923, 26.800
650.405, 34.084
650.887, 40.777
651.369, 49.481
651.851, 59.321
652.333, 66.525
652.815, 70.033
653.297, 69.420
653.779, 62.385
654.262, 49.438
654.744, 38.381
655.226, 34.656
655.708, 32.123
656.190, 26.152
656.672, 11.891
657.154, 7.292
657.636, 19.231
658.119, 33.488
658.601, 35.335
659.083, 22.436
659.565, 12.003
660.047, 6.939
660.529, 3.615
661.011, 6.186
661.493, 20.467
661.976, 29.027
662.458, 25.098
662.940, 16.438
663.422, 10.514
663.904, 6.694
664.386, 2.914
664.868, 2.198
665.350, 7.241
665.833, 9.783
666.315, 9.076
666.797, 16.277
667.279, 42.286
667.761, 64.964
668.243, 70.313
668.725, 52.503
669.207, 42.686
669.689, 42.785
670.171, 44.726
670.654, 35.357
671.136, 18.145
671.618, 14.105
672.100, 31.822
672.582, 52.689
673.064, 48.688
673.546, 33.014
674.028, 31.739
674.510, 76.367
674.993, 117.007
675.475, 126.105
675.957, 111.408
676.439, 103.298
676.921, 111.006
677.403, 120.349
677.885, 128.031
678.367, 134.003
678.849, 137.048
679.332, 134.761
679.814, 137.540
680.296, 156.557
680.778, 187.946
681.260, 213.921
681.742, 233.932
682.224, 242.059
682.706, 226.362
683.189, 197.187
683.671, 169.113
684.153, 145.093
684.635, 122.592
685.117, 95.606
685.599, 70.791
686.081, 57.434
686.563, 71.407
687.045, 78.823
687.528, 76.731
688.010, 66.184
688.492, 47.117
688.974, 16.565
689.456, 6.377
689.938, 11.923
690.420, 6.323
690.903, 8.664
691.385, 17.966
691.867, 24.798
692.349, 19.774
692.831, 10.367
693.313, 6.296
693.795, 8.177
694.277, 8.566
694.759, 1.902
695.242, 5.733
695.724, 10.192
696.206, 9.460
696.688, 10.262
697.170, 13.797
697.652, 18.354
698.134, 22.592
698.616, 26.931
699.098, 26.916
699.581, 21.300
700.063, 14.101
700.545, 8.929
701.027, 6.860
701.509, 11.613
701.991, 28.049
702.473, 47.001
702.955, 63.989
703.438, 77.686
703.920, 84.717
704.402, 70.628
704.884, 63.740
705.366, 77.989
705.848, 109.205
706.330, 131.355
706.812, 136.271
707.294, 150.013
707.777, 190.595
708.259, 253.626
708.741, 285.644
709.223, 285.357
709.705, 284.746
710.187, 314.823
710.669, 359.563
711.151, 388.974
711.633, 398.040
712.116, 413.405
712.598, 451.519
713.080, 503.748
713.562, 562.706
714.044, 635.255
714.526, 699.882
715.008, 748.642
715.490, 793.175
715.972, 846.767
716.455, 910.680
716.937, 974.220
717.419, 1031.865
717.901, 1093.950
718.383, 1180.289
718.865, 1288.154
719.347, 1398.309
719.830, 1507.556
720.312, 1616.095
720.794, 1727.097
721.276, 1837.974
721.758, 1945.293
722.240, 2077.098
722.722, 2175.020
723.204, 2223.487
723.686, 2218.890
724.169, 2142.684
724.651, 1973.310
725.133, 1767.867
725.615, 1538.191
726.097, 1286.249
726.579, 1069.855
727.061, 891.780
727.543, 742.625
728.026, 625.849
728.508, 532.345
728.990, 446.646
729.472, 366.467
729.954, 297.505
730.436, 241.860
730.918, 199.653
731.400, 172.001
731.882, 168.965
732.365, 159.498
732.847, 136.386
733.329, 110.381
733.811, 88.479
734.293, 66.415
734.775, 75.171
735.257, 127.171
735.739, 189.806
736.221, 217.435
736.704, 214.245
737.186, 193.511
737.668, 151.288
738.150, 106.241
738.632, 71.136
739.114, 45.760
739.596, 30.046
740.078, 32.094
740.560, 35.113
741.043, 33.003
741.525, 28.152
742.007, 29.939
742.489, 42.447
742.971, 49.950
743.453, 44.585
743.935, 30.494
744.417, 24.323
744.899, 25.627
745.382, 27.981
745.864, 29.080
746.346, 27.893
746.828, 20.373
747.310, 6.661
747.792, 1.892
748.274, 10.670
748.756, 21.751
749.239, 14.986
749.721, 15.811
750.203, 31.500
750.685, 25.892
751.167, 15.175
751.649, 11.200
752.131, 13.611
752.613, 10.923
753.096, 1.652
753.578, 4.434
754.060, 9.386
754.542, 31.021
755.024, 39.152
755.506, 27.194
755.988, 12.194
756.470, 1.065
756.952, 10.583
757.435, 14.190
757.917, 4.411
758.399, 0.850
758.881, 0.039
759.363, 4.213
759.845, 9.095
760.327, 14.924
760.809, 17.050
761.291, 13.696
761.774, 8.725
762.256, 8.502
762.738, 11.247
763.220, 12.205
763.702, 4.660
764.184, 0.637
764.666, 8.289
765.148, 24.334
765.630, 40.712
766.113, 58.223
766.595, 73.165
767.077, 84.981
767.559, 93.651
768.041, 98.624
768.523, 99.311
769.005, 101.073
769.487, 108.686
769.969, 116.740
770.452, 108.619
770.934, 89.057
771.416, 80.578
771.898, 109.297
772.380, 142.070
772.862, 155.346
773.344, 150.084
773.826, 148.326
774.309, 152.221
774.791, 161.827
775.273, 181.058
775.755, 209.192
776.237, 217.549
776.719, 202.692
777.201, 192.154
777.683, 210.829
778.166, 245.556
778.648, 268.154
779.130, 277.770
779.612, 281.626
780.094, 276.606
780.576, 273.083
781.058, 279.915
781.540, 300.357
782.023, 319.458
782.505, 337.725
782.987, 352.015
783.469, 358.243
783.951, 354.383
784.433, 359.523
784.915, 374.873
785.397, 393.014
785.879, 407.571
786.362, 419.384
786.844, 430.781
787.326, 442.578
787.808, 450.095
788.290, 442.785
788.772, 433.930
789.254, 435.925
789.736, 458.020
790.218, 478.331
790.701, 499.840
791.183, 515.332
791.665, 513.922
792.147, 494.434
792.629, 479.126
793.111, 468.864
793.593, 468.630
794.075, 497.442
794.557, 538.114
795.040, 555.191
795.522, 529.403
796.004, 502.899
796.486, 500.955
796.968, 508.860
797.450, 507.846
797.932, 494.090
798.414, 474.121
798.896, 442.592
799.379, 411.687
799.861, 402.438
800.343, 413.973
800.825, 428.084
801.307, 444.392
801.789, 452.253
802.271, 426.418
802.753, 384.454
803.236, 358.987
803.718, 375.947
804.200, 393.440
804.682, 400.157
805.164, 397.492
805.646, 389.130
806.128, 376.028
806.610, 353.052
807.093, 311.999
807.575, 269.577
808.057, 264.839
808.539, 292.934
809.021, 318.055
809.503, 329.075
809.985, 329.380
810.467, 316.329
810.950, 296.238
811.432, 281.147
811.914, 274.039
812.396, 272.660
812.878, 279.840
813.360, 292.843
813.842, 305.483
814.324, 319.284
814.806, 324.485
815.289, 317.144
815.771, 301.594
816.253, 278.150
816.735, 252.279
817.217, 244.201
817.699, 281.148
818.181, 321.732
818.663, 340.350
819.145, 341.377
819.628, 335.140
820.110, 307.383
820.592, 294.974
821.074, 311.201
821.556, 344.394
822.038, 359.700
822.520, 356.281
823.002, 352.727
823.484, 356.289
823.967, 363.255
824.449, 364.733
824.931, 364.450
825.413, 373.005
825.895, 411.213
826.377, 441.885
826.859, 439.370
827.341, 414.919
827.823, 412.860
828.306, 445.040
828.788, 474.203
829.270, 489.175
829.752, 498.099
830.234, 525.226
830.716, 566.285
831.198, 595.853
831.680, 594.196
832.163, 582.943
832.645, 578.891
833.127, 582.607
833.609, 594.283
834.091, 615.083
834.573, 642.709
835.055, 683.743
835.537, 728.675
836.019, 745.433
836.502, 729.366
836.984, 716.681
837.466, 719.879
837.948, 732.338
838.430, 748.713
838.912, 765.646
839.394, 772.631
839.877, 750.048
840.359, 730.897
840.841, 738.292
841.323, 762.407
841.805, 773.002
842.287, 760.368
842.769, 750.061
843.251, 747.765
843.733, 750.350
844.216, 750.004
844.698, 747.057
845.180, 745.459
845.662, 747.273
846.144, 750.228
846.626, 753.213
847.108, 755.368
847.590, 755.010
848.072, 749.765
848.555, 744.163
849.037, 741.415
849.519, 738.146
850.001, 725.875
850.483, 702.506
850.965, 683.945
851.447, 675.696
851.929, 671.217
852.411, 658.705
852.894, 641.218
853.376, 625.979
853.858, 614.650
854.340, 607.972
854.822, 613.496
855.304, 622.245
855.786, 617.255
856.268, 590.929
856.750, 564.801
857.233, 539.716
857.715, 518.264
858.197, 506.625
858.679, 503.438
859.161, 501.507
859.643, 501.112
860.125, 495.527
860.607, 469.977
861.089, 438.299
861.572, 419.407
862.054, 442.567
862.536, 444.368
863.018, 409.650
863.500, 360.871
863.982, 323.000
864.464, 296.997
864.946, 275.200
865.429, 256.383
865.911, 242.101
866.393, 238.051
866.875, 238.441
867.357, 233.009
867.839, 217.203
868.321, 202.047
868.803, 194.712
869.286, 187.878
869.768, 174.260
870.250, 149.678
870.732, 130.137
871.214, 115.398
871.696, 107.083
872.178, 114.542
872.660, 129.213
873.143, 124.525
873.625, 96.189
874.107, 65.558
874.589, 44.229
875.071, 28.720
875.553, 16.117
876.035, 5.251
876.517, 1.296
876.999, 8.032
877.482, 14.826
877.964, 12.334
878.446, 2.099
878.928, 0.500
879.410, 4.756
879.892, 9.506
880.374, 8.216
880.856, 2.970
881.338, 5.299
881.821, 16.476
882.303, 26.849
882.785, 37.562
883.267, 45.163
883.749, 48.744
884.231, 48.212
884.713, 40.117
885.195, 24.284
885.677, 10.686
886.160, 0.777
886.642, 0.560
887.124, 20.910
887.606, 59.147
888.088, 87.211
888.570, 91.505
889.052, 86.078
889.534, 70.438
890.016, 49.162
890.499, 41.858
890.981, 50.699
891.463, 59.206
891.945, 62.697
892.427, 61.136
892.909, 51.954
893.391, 37.632
893.873, 24.385
894.356, 17.115
894.838, 9.475
895.320, 1.808
895.802, 14.896
896.284, 26.690
896.766, 39.360
897.248, 43.425
897.730, 35.447
898.213, 22.621
898.695, 13.406
899.177, 8.749
899.659, 12.572
900.141, 29.757
900.623, 45.556
901.105, 53.162
901.587, 53.628
902.070, 46.522
902.552, 21.700
903.034, 13.618
903.516, 28.498
903.998, 47.555
904.480, 49.011
904.962, 37.299
905.444, 29.101
905.926, 25.934
906.409, 30.535
906.891, 52.652
907.373, 78.093
907.855, 93.922
908.337, 96.090
908.819, 101.642
909.301, 113.173
909.783, 124.766
910.265, 133.170
910.748, 138.749
911.230, 141.574
911.712, 142.209
912.194, 149.182
912.676, 174.143
913.158, 203.041
913.640, 220.575
914.122, 229.142
914.604, 252.490
915.087, 308.793
915.569, 356.933
916.051, 382.126
916.533, 392.546
917.015, 417.951
917.497, 456.350
917.979, 488.004
918.461, 493.208
918.943, 503.042
919.426, 549.515
919.908, 621.769
920.390, 698.613
920.872, 782.371
921.354, 858.067
921.836, 920.288
922.318, 978.326
922.800, 1042.699
923.283, 1113.854
923.765, 1204.332
924.247, 1318.656
924.729, 1439.619
925.211, 1544.108
925.693, 1649.740
926.175, 1780.129
926.657, 1955.809
927.140, 2112.626
927.622, 2226.052
928.104, 2338.329
928.586, 2476.648
929.068, 2640.285
929.550, 2827.123
930.032, 3038.954
930.514, 3245.729
930.997, 3420.102
931.479, 3582.588
931.961, 3755.078
932.443, 3938.355
932.925, 4127.892
933.407, 4325.139
933.889, 4529.038
934.371, 4750.530
934.853, 4979.019
935.336, 5167.988
935.818, 5317.023
936.300, 5447.526
936.782, 5573.416
937.264, 5682.533
937.746, 5765.944
938.228, 5822.492
938.710, 5852.252
939.192, 5835.267
939.674, 5815.317
940.157, 5800.151
940.639, 5783.105
941.121, 5751.219
941.603, 5705.986
942.085, 5665.863
942.567, 5638.312
943.049, 5602.717
943.531, 5526.590
944.013, 5436.227
944.496, 5362.979
944.978, 5319.517
945.460, 5267.561
945.942, 5197.848
946.424, 5129.974
946.906, 5079.006
947.388, 5044.701
947.870, 5007.230
948.353, 4965.635
948.835, 4924.798
949.317, 4887.501
949.799, 4854.378
950.281, 4827.509
950.763, 4806.729
951.245, 4784.377
951.727, 4738.862
952.209, 4726.347
952.692, 4772.024
953.174, 4856.974
953.656, 4919.717
954.138, 4965.849
954.620, 5031.478
955.102, 5144.073
955.584, 5262.533
956.067, 5346.336
956.549, 5418.042
957.031, 5516.034
957.513, 5652.688
957.995, 5800.852
958.477, 5956.479
958.959, 6125.398
959.441, 6311.417
959.923, 6515.138
960.406, 6740.439
960.888, 6986.173
961.370, 7276.007
961.852, 7643.248
962.334, 8044.616
962.816, 8442.781
963.298, 8831.754
963.780, 9286.270
964.263, 9817.761
964.745, 10383.337
965.227, 10964.947
965.709, 11574.878
966.191, 12217.561
966.673, 12899.377
967.155, 13614.698
967.637, 14374.758
968.119, 15165.117
968.602, 15955.829
969.084, 16779.033
969.566, 17685.449
970.048, 18682.104
970.530, 19730.277
971.012, 20824.846
971.494, 21956.316
971.976, 23070.695
972.458, 24208.996
972.941, 25439.508
973.423, 26807.969
973.905, 28165.057
974.387, 29464.863
974.869, 30729.971
975.351, 31993.291
975.833, 33276.699
976.315, 34357.656
976.797, 35242.047
977.280, 35778.207
977.762, 35918.195
978.244, 35625.598
978.726, 34822.270
979.208, 33527.082
979.690, 31868.027
980.172, 29704.016
980.654, 27330.441
981.136, 24756.904
981.619, 22094.730
982.101, 19622.982
982.583, 17344.670
983.065, 15291.945
983.547, 13482.723
984.029, 11885.416
984.511, 10554.805
984.994, 9423.754
985.476, 8416.197
985.958, 7529.295
986.440, 6762.267
986.922, 6129.869
987.404, 5589.488
987.886, 5121.334
988.368, 4714.660
988.850, 4327.171
989.333, 3955.017
989.815, 3622.661
990.297, 3349.688
990.779, 3112.982
991.261, 2902.337
991.743, 2716.445
992.225, 2553.354
992.707, 2416.792
993.190, 2285.241
993.672, 2149.517
994.154, 2021.523
994.636, 1928.817
995.118, 1860.546
995.600, 1794.017
996.082, 1721.937
996.564, 1648.264
997.046, 1568.867
997.529, 1492.418
998.011, 1425.275
998.493, 1367.103
998.975, 1322.120
999.457, 1291.336
999.939, 1260.872
1000.421, 1216.181
1000.903, 1166.648
1001.385, 1119.583
1001.868, 1076.374
1002.350, 1049.137
1002.832, 1065.507
1003.314, 1063.142
1003.796, 1015.573
1004.278, 943.886
1004.760, 919.173
1005.242, 932.123
1005.724, 923.933
1006.207, 863.135
1006.689, 798.302
1007.171, 772.477
1007.653, 761.598
1008.135, 734.904
1008.617, 679.743
1009.099, 633.091
1009.581, 595.368
1010.064, 565.171
1010.546, 551.382
1011.028, 541.786
1011.510, 501.372
1011.992, 431.748
1012.474, 372.548
1012.956, 353.410
1013.438, 338.108
1013.920, 313.535
1014.403, 280.190
1014.885, 235.520
1015.367, 178.454
1015.849, 138.535
1016.331, 130.192
1016.813, 130.837
1017.295, 117.759
1017.777, 95.164
1018.260, 68.304
1018.742, 30.913
1019.224, 7.170
1019.706, 7.396
1020.188, 6.441
1020.670, 23.558
1021.152, 73.919
1021.634, 90.641
1022.116, 75.527
1022.599, 62.297
1023.081, 80.336
1023.563, 98.524
1024.045, 97.558
1024.527, 80.956
1025.009, 62.461
1025.491, 37.931
1025.973, 31.532
1026.455, 53.424
1026.938, 82.565
1027.420, 89.416
1027.902, 82.286
1028.384, 74.089
1028.866, 66.467
1029.348, 62.181
1029.830, 68.844
1030.312, 70.978
1030.795, 54.569
1031.277, 21.831
1031.759, 12.438
1032.241, 25.161
1032.723, 45.018
1033.205, 82.491
1033.687, 104.486
1034.169, 69.391
1034.651, 0.385
1035.134, 36.641
1035.616, 20.976
1036.098, 18.517
1036.580, 39.402
1037.062, 71.861
1037.544, 104.907
1038.026, 137.264
1038.508, 167.150
1038.990, 193.849
1039.473, 218.877
1039.955, 242.673
1040.437, 264.457
1040.919, 282.129
1041.401, 297.207
1041.883, 321.105
1042.365, 353.535
1042.847, 388.898
1043.330, 425.826
1043.812, 462.925
1044.294, 493.537
1044.776, 524.195
1045.258, 567.334
1045.740, 638.270
1046.222, 691.835
1046.704, 722.578
1047.187, 746.734
1047.669, 780.525
1048.151, 820.116
1048.633, 857.631
1049.115, 892.613
1049.597, 929.689
1050.079, 976.558
1050.561, 1019.590
1051.043, 1050.477
1051.526, 1074.673
1052.008, 1112.281
1052.490, 1162.873
1052.972, 1201.865
1053.454, 1221.178
1053.936, 1229.420
1054.418, 1230.984
1054.900, 1228.047
1055.382, 1225.169
1055.865, 1229.975
1056.347, 1207.110
1056.829, 1147.438
1057.311, 1084.898
1057.793, 1046.854
1058.275, 1021.071
1058.757, 977.560
1059.239, 919.350
1059.722, 858.458
1060.204, 794.163
1060.686, 735.717
1061.168, 686.891
1061.650, 644.925
1062.132, 607.760
1062.614, 575.112
1063.096, 540.631
1063.578, 502.978
1064.061, 465.923
1064.543, 431.741
1065.025, 399.625
1065.507, 367.901
1065.989, 336.732
1066.471, 312.253
1066.953, 295.657
1067.435, 280.322
1067.917, 261.270
1068.400, 245.476
1068.882, 246.339
1069.364, 259.731
1069.846, 278.248
1070.328, 304.093
1070.810, 324.719
1071.292, 328.389
1071.774, 337.328
1072.256, 369.144
1072.739, 422.595
1073.221, 482.864
1073.703, 549.701
1074.185, 623.056
1074.667, 711.580
1075.149, 798.553
1075.631, 872.612
1076.113, 938.217
1076.596, 1007.732
1077.078, 1079.565
1077.560, 1163.749
1078.042, 1262.987
1078.524, 1374.012
1079.006, 1490.423
1079.488, 1620.227
1079.970, 1770.912
1080.453, 1942.619
1080.935, 2136.275
1081.417, 2351.647
1081.899, 2580.017
1082.381, 2810.313
1082.863, 3059.084
1083.345, 3389.812
1083.827, 3771.679
1084.309, 4117.057
1084.792, 4437.517
1085.274, 4636.329
1085.756, 4671.345
1086.238, 4562.739
1086.720, 4290.956
1087.202, 3842.313
1087.684, 3462.347
1088.166, 3151.038
1088.648, 2939.766
1089.131, 2891.987
1089.613, 2908.824
1090.095, 2915.080
1090.577, 2924.354
1091.059, 2985.067
1091.541, 3113.422
1092.023, 3248.760
1092.505, 3384.360
1092.988, 3518.173
1093.470, 3639.007
1093.952, 3763.627
1094.434, 3923.474
1094.916, 4123.167
1095.398, 4315.415
1095.880, 4481.046
1096.362, 4649.305
1096.844, 4830.548
1097.327, 5023.529
1097.809, 5231.772
1098.291, 5450.511
1098.773, 5658.407
1099.255, 5851.269
1099.737, 6031.665
1100.219, 6208.660
1100.701, 6368.733
1101.183, 6509.964
1101.666, 6634.001
1102.148, 6699.257
1102.630, 6706.452
1103.112, 6674.403
1103.594, 6611.731
1104.076, 6517.726
1104.558, 6400.810
1105.040, 6249.490
1105.523, 6030.352
1106.005, 5719.257
1106.487, 5428.132
1106.969, 5171.705
1107.451, 4916.836
1107.933, 4622.014
1108.415, 4311.417
1108.897, 4023.993
1109.380, 3760.963
1109.862, 3507.463
1110.344, 3249.266
1110.826, 3006.837
1111.308, 2784.315
1111.790, 2580.757
1112.272, 2401.456
1112.754, 2242.350
1113.236, 2095.823
1113.719, 1960.070
1114.201, 1835.002
1114.683, 1721.638
1115.165, 1622.568
1115.647, 1542.894
1116.129, 1479.337
1116.611, 1411.914
1117.093, 1340.652
1117.575, 1281.667
1118.058, 1249.024
1118.540, 1217.875
1119.022, 1166.997
1119.504, 1109.654
1119.986, 1061.159
1120.468, 1020.607
1120.950, 998.558
1121.432, 996.423
1121.915, 997.662
1122.397, 992.218
1122.879, 983.477
1123.361, 974.647
1123.843, 967.156
1124.325, 959.300
1124.807, 949.839
1125.289, 939.260
1125.771, 927.057
1126.254, 917.425
1126.736, 919.569
1127.218, 925.505
1127.700, 921.753
1128.182, 907.371
1128.664, 888.477
1129.146, 862.229
1129.628, 839.102
1130.110, 824.374
1130.593, 813.106
1131.075, 797.717
1131.557, 777.125
1132.039, 748.440
1132.521, 708.933
1133.003, 672.016
1133.485, 646.243
1133.967, 622.121
1134.450, 593.922
1134.932, 563.001
1135.414, 539.532
1135.896, 523.657
1136.378, 512.731
1136.860, 509.740
1137.342, 504.182
1137.824, 485.187
1138.307, 463.407
1138.789, 449.462
1139.271, 444.067
1139.753, 438.423
1140.235, 432.405
1140.717, 430.062
1141.199, 440.657
1141.681, 449.463
1142.163, 441.726
1142.646, 423.238
1143.128, 407.804
1143.610, 399.434
1144.092, 381.793
1144.574, 351.858
1145.056, 324.112
1145.538, 319.004
1146.020, 318.966
1146.502, 298.806
1146.985, 260.995
1147.467, 232.413
1147.949, 218.607
1148.431, 207.775
1148.913, 198.733
1149.395, 189.811
1149.877, 181.170
1150.359, 170.319
1150.842, 151.878
1151.324, 124.688
1151.806, 95.928
1152.288, 58.740
1152.770, 33.775
1153.252, 30.548
1153.734, 40.450
1154.216, 47.629
1154.698, 51.378
1155.181, 48.589
1155.663, 35.302
1156.145, 26.965
1156.627, 33.651
1157.109, 42.750
1157.591, 50.729
1158.073, 30.792
1158.555, 51.761
1159.037, 62.807
1159.520, 64.432
1160.002, 28.527
1160.484, 41.145
1160.966, 34.379
1161.448, 26.791
1161.930, 46.185
1162.412, 15.722
1162.894, 34.664
1163.376, 33.880
1163.859, 28.507
1164.341, 8.184
1164.823, 8.586
1165.305, 2.329
1165.787, 10.276
1166.269, 0.613
1166.751, 38.633
1167.233, 49.541
1167.716, 29.348
1168.198, 7.139
1168.680, 3.248
1169.162, 8.396
1169.644, 20.562
1170.126, 35.762
1170.608, 42.602
1171.090, 40.053
1171.573, 34.420
1172.055, 25.710
1172.537, 20.275
1173.019, 33.947
1173.501, 46.800
1173.983, 32.686
1174.465, 6.337
1174.947, 21.805
1175.429, 7.184
1175.911, 3.851
1176.394, 2.245
1176.876, 2.878
1177.358, 0.022
1177.840, 5.591
1178.322, 8.373
1178.804, 7.346
1179.286, 0.266
1179.768, 18.340
1180.251, 23.180
1180.733, 1.203
1181.215, 32.930
1181.697, 38.347
1182.179, 28.669
1182.661, 21.349
1183.143, 22.092
1183.625, 16.313
1184.108, 0.269
1184.590, 13.032
1185.072, 15.769
1185.554, 12.545
1186.036, 13.615
1186.518, 14.983
1187.000, 7.651
1187.482, 22.446
1187.964, 37.422
1188.447, 31.631
1188.929, 20.397
1189.411, 13.687
1189.893, 9.701
1190.375, 3.454
1190.857, 3.750
1191.339, 7.891
1191.821, 0.363
1192.303, 1.352
1192.786, 18.197
1193.268, 38.223
1193.750, 54.122
1194.232, 63.645
1194.714, 55.418
1195.196, 33.822
1195.678, 19.945
1196.160, 23.516
1196.643, 34.941
1197.125, 55.358
1197.607, 77.881
1198.089, 98.068
1198.571, 113.057
1199.053, 112.605
1199.535, 97.730
1200.017, 83.222
1200.500, 70.640
1200.982, 66.175
1201.464, 74.912
1201.946, 86.585
1202.428, 82.010
1202.910, 68.297
1203.392, 63.207
1203.874, 67.705
1204.356, 79.939
1204.839, 118.244
1205.321, 137.299
1205.803, 114.526
1206.285, 78.106
1206.767, 88.033
1207.249, 127.452
1207.731, 147.399
1208.213, 137.547
1208.695, 130.783
1209.178, 149.486
1209.660, 161.722
1210.142, 154.607
1210.624, 136.454
1211.106, 123.909
1211.588, 117.341
1212.070, 119.907
1212.552, 134.487
1213.035, 146.360
1213.517, 151.839
1213.999, 150.617
1214.481, 140.013
1214.963, 124.329
1215.445, 114.504
1215.927, 109.786
1216.409, 108.677
1216.891, 113.166
1217.374, 113.321
1217.856, 99.781
1218.338, 90.424
1218.820, 95.358
1219.302, 110.566
1219.784, 128.783
1220.266, 145.895
1220.748, 149.029
1221.230, 125.787
1221.713, 106.416
1222.195, 95.579
1222.677, 93.380
1223.159, 106.788
1223.641, 126.941
1224.123, 119.230
1224.605, 90.441
1225.087, 67.788
1225.570, 65.261
1226.052, 67.684
1226.534, 71.171
1227.016, 77.340
1227.498, 88.750
1227.980, 102.556
1228.462, 114.942
1228.944, 124.395
1229.427, 124.453
1229.909, 102.549
1230.391, 85.802
1230.873, 75.175
1231.355, 70.490
1231.837, 75.479
1232.319, 88.516
1232.801, 102.511
1233.283, 115.866
1233.766, 123.682
1234.248, 116.867
1234.730, 118.108
1235.212, 131.982
1235.694, 146.007
1236.176, 147.543
1236.658, 141.690
1237.140, 133.631
1237.622, 127.457
1238.105, 133.349
1238.587, 171.365
1239.069, 190.148
1239.551, 185.534
1240.033, 170.119
1240.515, 149.941
1240.997, 129.471
1241.479, 119.871
1241.962, 119.680
1242.444, 116.927
1242.926, 106.094
1243.408, 98.198
1243.890, 94.930
1244.372, 93.314
1244.854, 95.671
1245.336, 101.928
1245.818, 103.092
1246.301, 100.017
1246.783, 96.576
1247.265, 96.646
1247.747, 95.066
1248.229, 89.466
1248.711, 84.092
1249.193, 90.743
1249.675, 97.757
1250.157, 89.660
1250.640, 69.190
1251.122, 54.549
1251.604, 46.480
1252.086, 46.892
1252.568, 57.426
1253.050, 68.718
1253.532, 71.686
1254.014, 70.332
1254.496, 69.278
1254.979, 67.259
1255.461, 57.251
1255.943, 37.628
1256.425, 25.182
1256.907, 22.675
1257.389, 27.867
1257.871, 49.107
1258.353, 67.948
1258.836, 69.076
1259.318, 56.186
1259.800, 34.420
1260.282, 4.252
1260.764, 4.123
1261.246, 15.696
1261.728, 35.623
1262.210, 35.254
1262.693, 29.856
1263.175, 26.104
1263.657, 24.556
1264.139, 27.467
1264.621, 34.139
1265.103, 36.703
1265.585, 33.431
1266.067, 28.023
1266.549, 14.826
1267.031, 11.182
1267.514, 27.813
1267.996, 53.682
1268.478, 61.355
1268.960, 57.261
1269.442, 67.435
1269.924, 97.755
1270.406, 115.600
1270.888, 96.607
1271.371, 75.049
1271.853, 58.312
1272.335, 47.414
1272.817, 47.289
1273.299, 53.979
1273.781, 58.368
1274.263, 58.800
1274.745, 62.537
1275.228, 74.107
1275.710, 82.535
1276.192, 84.448
1276.674, 82.222
1277.156, 75.661
1277.638, 70.238
1278.120, 78.257
1278.602, 101.303
1279.084, 107.167
1279.567, 91.971
1280.049, 75.850
1280.531, 62.511
1281.013, 49.126
1281.495, 40.551
1281.977, 37.049
1282.459, 46.195
1282.941, 66.538
1283.423, 62.157
1283.906, 29.243
1284.388, 6.281
1284.870, 4.651
1285.352, 11.407
1285.834, 23.667
1286.316, 32.649
1286.798, 25.578
1287.280, 9.509
1287.763, 17.754
1288.245, 47.562
1288.727, 63.361
1289.209, 55.339
1289.691, 44.472
1290.173, 38.474
1290.655, 40.157
1291.137, 54.537
1291.620, 73.930
1292.102, 72.784
1292.584, 57.069
1293.066, 53.979
1293.548, 74.424
1294.030, 80.379
1294.512, 28.678
1294.994, 5.718
1295.476, 2.234
1295.958, 26.170
1296.441, 73.373
1296.923, 121.590
1297.405, 136.051
1297.887, 106.833
1298.369, 54.552
1298.851, 41.804
1299.333, 30.578
1299.815, 17.956
1300.298, 7.489
1300.780, 0.000
##END=



