##NAMES=Cassiterite
##RRUFFID=R060563
##IDEAL CHEMISTRY=SnO_2_
##LOCALITY=unknown
##OWNER=RRUFF
##SOURCE=Gemological Institute of America
##DESCRIPTION=Dark brown fragment
##STATUS=The identification of this mineral has been confirmed by X-ray diffraction and chemical analysis
##URL=rruff.info/R060563
##MEASURED CHEMISTRY=Sn_1.00_O_2_
119.593, 0.000
120.075, 47.122
120.558, 127.823
121.040, 221.180
121.522, 317.186
122.004, 410.549
122.486, 511.043
122.968, 630.110
123.450, 745.801
123.932, 798.013
124.414, 731.992
124.897, 630.424
125.379, 507.656
125.861, 373.254
126.343, 264.835
126.825, 194.975
127.307, 160.915
127.789, 133.477
128.271, 83.957
128.753, 21.477
129.236, 28.090
129.718, 57.360
130.200, 68.352
130.682, 60.725
131.164, 32.962
131.646, 0.470
132.128, 16.994
132.610, 20.482
133.093, 27.673
133.575, 47.815
134.057, 79.029
134.539, 106.825
135.021, 128.708
135.503, 151.745
135.985, 191.188
136.467, 250.341
136.949, 306.546
137.432, 345.140
137.914, 364.160
138.396, 390.758
138.878, 431.975
139.360, 479.040
139.842, 502.785
140.324, 499.098
140.806, 480.846
141.288, 453.241
141.771, 410.146
142.253, 376.858
142.735, 359.038
143.217, 355.676
143.699, 348.285
144.181, 322.053
144.663, 307.413
145.145, 339.034
145.628, 465.407
146.110, 557.136
146.592, 583.007
147.074, 532.410
147.556, 477.396
148.038, 404.689
148.520, 332.158
149.002, 284.230
149.484, 275.110
149.967, 275.068
150.449, 277.152
150.931, 282.165
151.413, 287.836
151.895, 292.042
152.377, 297.290
152.859, 308.064
153.342, 333.723
153.824, 358.319
154.306, 375.912
154.788, 384.374
155.270, 389.085
155.752, 391.469
156.234, 391.145
156.716, 386.507
157.198, 366.531
157.680, 348.901
158.163, 343.892
158.645, 342.184
159.127, 364.539
159.609, 433.825
160.091, 543.076
160.573, 631.979
161.055, 676.614
161.538, 692.361
162.020, 691.260
162.502, 658.334
162.984, 624.283
163.466, 601.433
163.948, 590.250
164.430, 586.062
164.912, 588.593
165.394, 596.292
165.876, 607.237
166.359, 623.519
166.841, 640.979
167.323, 659.929
167.805, 682.205
168.287, 695.315
168.769, 677.240
169.251, 644.730
169.733, 628.883
170.216, 665.634
170.698, 715.776
171.180, 741.864
171.662, 734.679
172.144, 716.035
172.626, 692.937
173.108, 670.594
173.590, 663.984
174.072, 695.066
174.555, 743.096
175.037, 781.425
175.519, 803.951
176.001, 816.875
176.483, 822.046
176.965, 821.095
177.447, 818.155
177.929, 830.363
178.412, 849.776
178.894, 860.387
179.376, 852.058
179.858, 838.798
180.340, 842.955
180.822, 863.888
181.304, 886.665
181.786, 895.912
182.268, 896.419
182.751, 902.064
183.233, 918.149
183.715, 942.144
184.197, 971.576
184.679, 1007.401
185.161, 1038.658
185.643, 1052.105
186.125, 1050.034
186.607, 1046.154
187.090, 1044.088
187.572, 1042.941
188.054, 1037.384
188.536, 1026.982
189.018, 1019.831
189.500, 1025.751
189.982, 1042.930
190.464, 1063.989
190.947, 1088.411
191.429, 1115.179
191.911, 1135.915
192.393, 1150.002
192.875, 1159.648
193.357, 1168.158
193.839, 1175.481
194.321, 1180.687
194.803, 1180.766
195.286, 1176.383
195.768, 1181.309
196.250, 1200.201
196.732, 1222.233
197.214, 1220.578
197.696, 1190.836
198.178, 1169.792
198.661, 1185.655
199.143, 1239.759
199.625, 1277.451
200.107, 1290.811
200.589, 1289.062
201.071, 1296.487
201.553, 1314.859
202.035, 1335.228
202.517, 1350.507
202.999, 1359.423
203.482, 1374.386
203.964, 1397.396
204.446, 1426.925
204.928, 1459.525
205.410, 1497.038
205.892, 1531.623
206.374, 1554.000
206.857, 1560.308
207.339, 1575.767
207.821, 1606.488
208.303, 1649.245
208.785, 1685.499
209.267, 1712.791
209.749, 1739.476
210.231, 1767.877
210.713, 1792.183
211.195, 1843.166
211.678, 1933.296
212.160, 2059.619
212.642, 2180.300
213.124, 2304.771
213.606, 2410.625
214.088, 2465.673
214.570, 2445.926
215.052, 2449.540
215.535, 2501.979
216.017, 2603.341
216.499, 2702.406
216.981, 2811.506
217.463, 2902.827
217.945, 2937.787
218.427, 2887.775
218.909, 2850.591
219.391, 2850.591
219.874, 2889.421
220.356, 2935.755
220.838, 2993.394
221.320, 3053.958
221.802, 3104.793
222.284, 3138.298
222.766, 3179.000
223.248, 3236.114
223.731, 3313.958
224.213, 3380.200
224.695, 3429.168
225.177, 3472.333
225.659, 3526.487
226.141, 3594.839
226.623, 3667.909
227.105, 3741.224
227.587, 3811.532
228.070, 3899.469
228.552, 4014.551
229.034, 4140.009
229.516, 4245.083
229.998, 4312.752
230.480, 4388.323
230.962, 4473.040
231.444, 4543.823
231.926, 4728.424
232.409, 4841.989
232.891, 5021.857
233.373, 5185.659
233.855, 5334.254
234.337, 5422.021
234.819, 5587.324
235.301, 5723.911
235.783, 5866.310
236.266, 6013.161
236.748, 6166.692
237.230, 6332.616
237.712, 6524.858
238.194, 6711.850
238.676, 6883.772
239.158, 7047.480
239.640, 7178.595
240.122, 7271.754
240.605, 7335.079
241.087, 7390.588
241.569, 7471.127
242.051, 7497.428
242.533, 7435.450
243.015, 7266.213
243.497, 7047.531
243.980, 6775.615
244.462, 6457.446
244.944, 6104.833
245.426, 5702.852
245.908, 5289.630
246.390, 4872.018
246.872, 4432.684
247.354, 4039.328
247.836, 3707.412
248.318, 3420.184
248.801, 3140.098
249.283, 2859.281
249.765, 2597.911
250.247, 2363.674
250.729, 2162.069
251.211, 1977.668
251.693, 1818.362
252.176, 1677.756
252.658, 1539.070
253.140, 1396.514
253.622, 1260.023
254.104, 1131.434
254.586, 1009.209
255.068, 909.314
255.550, 838.314
256.032, 784.861
256.514, 726.261
256.997, 663.903
257.479, 597.906
257.961, 524.620
258.443, 435.074
258.925, 358.980
259.407, 295.527
259.889, 244.135
260.371, 204.006
260.854, 180.766
261.336, 158.234
261.818, 126.486
262.300, 79.750
262.782, 41.878
263.264, 14.875
263.746, 2.941
264.228, 15.788
264.711, 25.605
265.193, 26.821
265.675, 14.980
266.157, 13.715
266.639, 40.497
267.121, 64.053
267.603, 86.040
268.085, 107.612
268.567, 124.515
269.050, 152.856
269.532, 204.259
270.014, 284.480
270.496, 354.426
270.978, 408.350
271.460, 455.732
271.942, 515.991
272.424, 591.158
272.906, 671.045
273.389, 751.688
273.871, 832.289
274.353, 916.989
274.835, 1003.182
275.317, 1095.475
275.799, 1203.512
276.281, 1327.967
276.763, 1462.653
277.246, 1608.666
277.728, 1766.273
278.210, 1916.884
278.692, 2058.457
279.174, 2194.620
279.656, 2331.553
280.138, 2468.420
280.620, 2612.595
281.103, 2772.865
281.585, 2948.493
282.067, 3111.723
282.549, 3264.203
283.031, 3400.594
283.513, 3533.267
283.995, 3664.137
284.477, 3724.188
284.959, 3678.437
285.441, 3532.260
285.924, 3319.585
286.406, 3029.105
286.888, 2708.594
287.370, 2422.990
287.852, 2169.839
288.334, 1927.791
288.816, 1676.988
289.298, 1429.067
289.781, 1229.905
290.263, 1083.814
290.745, 962.777
291.227, 833.469
291.709, 698.323
292.191, 582.851
292.673, 504.546
293.155, 451.092
293.638, 385.689
294.120, 307.370
294.602, 233.144
295.084, 180.349
295.566, 147.059
296.048, 124.897
296.530, 117.345
297.012, 116.300
297.494, 106.572
297.977, 88.085
298.459, 64.231
298.941, 27.097
299.423, 13.897
299.905, 33.272
300.387, 10.485
300.869, 29.309
301.351, 54.513
301.833, 65.330
302.316, 65.732
302.798, 51.077
303.280, 29.177
303.762, 13.957
304.244, 15.100
304.726, 19.125
305.208, 10.766
305.690, 8.560
306.172, 29.574
306.655, 49.213
307.137, 65.664
307.619, 75.474
308.101, 71.603
308.583, 69.238
309.065, 86.497
309.547, 117.893
310.030, 140.894
310.512, 133.075
310.994, 114.949
311.476, 107.524
311.958, 123.086
312.440, 136.242
312.922, 126.825
313.404, 101.773
313.886, 82.814
314.369, 87.016
314.851, 96.746
315.333, 99.692
315.815, 92.562
316.297, 81.016
316.779, 64.903
317.261, 46.118
317.743, 28.136
318.225, 17.202
318.708, 3.819
319.190, 18.885
319.672, 56.202
320.154, 87.948
320.636, 102.932
321.118, 110.380
321.600, 123.690
322.082, 150.611
322.565, 179.881
323.047, 209.684
323.529, 242.714
324.011, 265.097
324.493, 265.942
324.975, 257.916
325.457, 255.416
325.939, 263.102
326.422, 273.079
326.904, 284.511
327.386, 297.563
327.868, 309.968
328.350, 323.991
328.832, 336.117
329.314, 342.893
329.796, 331.982
330.278, 331.876
330.760, 351.771
331.243, 390.713
331.725, 418.716
332.207, 433.296
332.689, 439.508
333.171, 439.689
333.653, 428.436
334.135, 422.182
334.617, 422.510
335.100, 429.284
335.582, 442.279
336.064, 464.144
336.546, 487.329
337.028, 507.418
337.510, 523.611
337.992, 538.723
338.474, 552.308
338.957, 565.265
339.439, 581.589
339.921, 602.929
340.403, 620.527
340.885, 628.926
341.367, 627.818
341.849, 623.200
342.331, 613.480
342.813, 603.523
343.296, 603.944
343.778, 615.188
344.260, 623.772
344.742, 622.622
345.224, 613.103
345.706, 601.938
346.188, 588.181
346.670, 577.433
347.152, 580.289
347.635, 594.261
348.117, 603.654
348.599, 599.718
349.081, 587.958
349.563, 579.638
350.045, 574.652
350.527, 573.023
351.009, 578.582
351.491, 587.388
351.974, 589.431
352.456, 575.149
352.938, 558.996
353.420, 565.271
353.902, 589.802
354.384, 606.340
354.866, 588.418
355.349, 554.080
355.831, 526.479
356.313, 512.567
356.795, 502.845
357.277, 491.630
357.759, 479.592
358.241, 468.093
358.723, 457.206
359.205, 446.207
359.688, 434.916
360.170, 423.117
360.652, 410.369
361.134, 398.818
361.616, 385.617
362.098, 366.629
362.580, 328.089
363.062, 292.994
363.544, 270.000
364.027, 260.043
364.509, 260.258
364.991, 234.172
365.473, 213.110
365.955, 205.453
366.437, 194.641
366.919, 179.621
367.401, 150.392
367.884, 135.349
368.366, 114.437
368.848, 97.715
369.330, 70.934
369.812, 42.902
370.294, 4.124
370.776, 19.774
371.258, 19.615
371.741, 1.399
372.223, 7.432
372.705, 4.198
373.187, 5.133
373.669, 18.397
374.151, 38.944
374.633, 52.318
375.115, 56.326
375.597, 54.302
376.079, 54.487
376.562, 58.743
377.044, 57.098
377.526, 41.571
378.008, 12.009
378.490, 4.460
378.972, 5.654
379.454, 0.612
379.936, 4.356
380.419, 5.795
380.901, 9.645
381.383, 20.333
381.865, 33.850
382.347, 37.102
382.829, 29.760
383.311, 16.166
383.793, 4.892
384.276, 29.676
384.758, 46.240
385.240, 48.050
385.722, 45.194
386.204, 45.807
386.686, 60.280
387.168, 71.414
387.650, 79.385
388.132, 74.673
388.615, 86.388
389.097, 91.547
389.579, 96.458
390.061, 110.543
390.543, 113.885
391.025, 120.807
391.507, 116.835
391.989, 114.742
392.471, 127.311
392.954, 157.635
393.436, 178.652
393.918, 171.847
394.400, 152.720
394.882, 137.478
395.364, 133.659
395.846, 131.402
396.328, 128.808
396.810, 125.794
397.293, 121.895
397.775, 111.800
398.257, 104.305
398.739, 104.416
399.221, 116.739
399.703, 131.240
400.185, 150.554
400.668, 171.767
401.150, 187.290
401.632, 194.926
402.114, 199.668
402.596, 203.197
403.078, 205.654
403.560, 206.237
404.042, 203.769
404.524, 200.917
405.007, 201.245
405.489, 205.030
405.971, 211.059
406.453, 218.574
406.935, 228.017
407.417, 242.368
407.899, 261.835
408.381, 284.744
408.863, 313.674
409.346, 347.450
409.828, 368.421
410.310, 368.608
410.792, 361.933
411.274, 376.889
411.756, 411.294
412.238, 447.126
412.720, 469.860
413.203, 486.728
413.685, 514.785
414.167, 558.068
414.649, 600.437
415.131, 623.271
415.613, 633.832
416.095, 646.476
416.577, 670.543
417.060, 697.150
417.542, 721.287
418.024, 742.342
418.506, 757.880
418.988, 762.385
419.470, 762.229
419.952, 762.845
420.434, 761.572
420.916, 766.193
421.398, 774.623
421.881, 790.024
422.363, 823.168
422.845, 898.084
423.327, 973.977
423.809, 1030.031
424.291, 1047.971
424.773, 1085.286
425.255, 1153.960
425.738, 1238.531
426.220, 1319.555
426.702, 1392.406
427.184, 1467.670
427.666, 1548.803
428.148, 1635.402
428.630, 1724.948
429.112, 1819.032
429.595, 1914.960
430.077, 2005.705
430.559, 2087.884
431.041, 2185.979
431.523, 2309.815
432.005, 2446.725
432.487, 2566.592
432.969, 2668.907
433.451, 2765.393
433.934, 2859.057
434.416, 2951.364
434.898, 3051.146
435.380, 3160.218
435.862, 3271.673
436.344, 3385.151
436.826, 3495.177
437.308, 3585.131
437.790, 3646.925
438.273, 3686.627
438.755, 3710.671
439.237, 3718.938
439.719, 3709.658
440.201, 3686.417
440.683, 3643.344
441.165, 3571.036
441.647, 3454.794
442.129, 3332.456
442.612, 3222.917
443.094, 3122.689
443.576, 3023.167
444.058, 2910.762
444.540, 2807.753
445.022, 2725.989
445.504, 2669.511
445.987, 2615.690
446.469, 2548.689
446.951, 2489.120
447.433, 2455.799
447.915, 2474.168
448.397, 2484.594
448.879, 2475.252
449.361, 2451.081
449.843, 2441.918
450.326, 2453.161
450.808, 2470.319
451.290, 2486.140
451.772, 2500.167
452.254, 2514.853
452.736, 2529.059
453.218, 2545.339
453.700, 2571.512
454.182, 2608.147
454.665, 2635.600
455.147, 2638.915
455.629, 2628.878
456.111, 2643.782
456.593, 2684.127
457.075, 2728.536
457.557, 2757.042
458.039, 2775.556
458.522, 2794.579
459.004, 2811.511
459.486, 2840.896
459.968, 2903.148
460.450, 2991.168
460.932, 3083.602
461.414, 3159.727
461.896, 3244.505
462.379, 3361.917
462.861, 3516.423
463.343, 3673.699
463.825, 3803.945
464.307, 3938.185
464.789, 4107.487
465.271, 4360.193
465.753, 4605.898
466.235, 4812.898
466.717, 4987.220
467.200, 5184.836
467.682, 5425.993
468.164, 5676.238
468.646, 5919.949
469.128, 6147.950
469.610, 6400.393
470.092, 6686.614
470.574, 6988.251
471.057, 7281.306
471.539, 7571.221
472.021, 7837.211
472.503, 8082.140
472.985, 8298.967
473.467, 8471.718
473.949, 8606.079
474.431, 8649.042
474.914, 8572.417
475.396, 8376.376
475.878, 8038.577
476.360, 7538.455
476.842, 6951.623
477.324, 6337.764
477.806, 5710.130
478.288, 5122.114
478.770, 4578.260
479.253, 4091.815
479.735, 3681.139
480.217, 3345.217
480.699, 3060.935
481.181, 2818.041
481.663, 2618.771
482.145, 2464.202
482.627, 2378.078
483.109, 2302.572
483.592, 2211.428
484.074, 2117.151
484.556, 2049.701
485.038, 2032.286
485.520, 2024.423
486.002, 2012.790
486.484, 1995.676
486.966, 1986.373
487.448, 1994.385
487.931, 2001.042
488.413, 1988.908
488.895, 1949.624
489.377, 1914.900
489.859, 1886.086
490.341, 1866.156
490.823, 1870.854
491.306, 1904.881
491.788, 1929.562
492.270, 1912.058
492.752, 1863.498
493.234, 1848.562
493.716, 1869.078
494.198, 1913.905
494.680, 1996.079
495.162, 2094.020
495.645, 2147.478
496.127, 2122.973
496.609, 2070.233
497.091, 2033.639
497.573, 2010.586
498.055, 1991.479
498.537, 1980.720
499.019, 1965.479
499.501, 1935.868
499.984, 1889.922
500.466, 1836.841
500.948, 1774.610
501.430, 1709.860
501.912, 1648.199
502.394, 1588.704
502.876, 1536.654
503.358, 1498.883
503.841, 1470.431
504.323, 1428.085
504.805, 1358.722
505.287, 1293.045
505.769, 1243.942
506.251, 1213.418
506.733, 1191.310
507.215, 1181.321
507.698, 1171.783
508.180, 1144.564
508.662, 1099.411
509.144, 1064.011
509.626, 1051.417
510.108, 1046.273
510.590, 1015.656
511.072, 960.998
511.554, 894.696
512.036, 810.226
512.519, 724.277
513.001, 664.906
513.483, 636.576
513.965, 616.701
514.447, 598.175
514.929, 574.788
515.411, 538.508
515.893, 474.146
516.375, 408.755
516.858, 353.462
517.340, 305.662
517.822, 256.532
518.304, 197.200
518.786, 141.494
519.268, 95.328
519.750, 60.220
520.232, 30.542
520.715, 11.810
521.197, 6.375
521.679, 36.139
522.161, 82.005
522.643, 125.512
523.125, 167.822
523.607, 203.668
524.089, 210.854
524.571, 186.870
525.054, 166.718
525.536, 173.895
526.018, 201.003
526.500, 223.772
526.982, 241.897
527.464, 252.891
527.946, 251.407
528.429, 241.594
528.911, 231.029
529.393, 224.239
529.875, 213.988
530.357, 196.959
530.839, 172.404
531.321, 139.009
531.803, 78.338
532.286, 23.315
532.768, 4.743
533.250, 0.172
533.732, 4.841
534.214, 29.758
534.696, 62.923
535.178, 95.851
535.660, 123.481
536.142, 160.468
536.625, 212.276
537.107, 271.839
537.589, 322.592
538.071, 361.933
538.553, 404.055
539.035, 456.612
539.517, 517.015
539.999, 575.377
540.481, 633.100
540.964, 676.396
541.446, 690.921
541.928, 682.242
542.410, 662.311
542.892, 631.079
543.374, 595.590
543.856, 557.085
544.338, 519.250
544.820, 488.962
545.303, 478.465
545.785, 468.314
546.267, 445.427
546.749, 411.454
547.231, 383.232
547.713, 365.966
548.195, 355.328
548.677, 350.104
549.159, 354.959
549.642, 353.932
550.124, 340.185
550.606, 325.941
551.088, 329.069
551.570, 358.743
552.052, 376.344
552.534, 370.719
553.016, 349.424
553.499, 340.398
553.981, 344.395
554.463, 343.115
554.945, 317.338
555.427, 278.511
555.909, 261.623
556.391, 269.053
556.873, 280.147
557.356, 276.335
557.838, 264.229
558.320, 254.301
558.802, 254.800
559.284, 249.582
559.766, 219.766
560.248, 177.842
560.730, 150.804
561.213, 161.493
561.695, 175.222
562.177, 181.379
562.659, 179.080
563.141, 171.643
563.623, 150.820
564.105, 133.518
564.587, 131.707
565.069, 150.877
565.552, 166.926
566.034, 181.463
566.516, 188.255
566.998, 172.009
567.480, 133.141
567.962, 100.702
568.444, 85.682
568.926, 81.566
569.408, 74.606
569.891, 65.980
570.373, 63.316
570.855, 82.813
571.337, 104.782
571.819, 102.617
572.301, 70.478
572.783, 46.317
573.265, 54.175
573.747, 77.938
574.230, 101.919
574.712, 136.384
575.194, 154.868
575.676, 142.264
576.158, 111.623
576.640, 93.236
577.122, 91.567
577.604, 92.602
578.086, 91.341
578.569, 88.553
579.051, 93.972
579.533, 107.487
580.015, 125.285
580.497, 152.179
580.979, 184.474
581.461, 193.822
581.943, 175.531
582.426, 157.047
582.908, 170.672
583.390, 204.018
583.872, 232.234
584.354, 243.743
584.836, 250.688
585.318, 262.310
585.800, 277.306
586.282, 290.646
586.765, 294.723
587.247, 300.706
587.729, 315.589
588.211, 342.321
588.693, 365.477
589.175, 376.491
589.657, 394.173
590.140, 431.758
590.622, 495.789
591.104, 538.894
591.586, 527.430
592.068, 540.833
592.550, 515.783
593.032, 685.523
593.514, 808.308
593.996, 886.617
594.479, 786.970
594.961, 917.284
595.443, 955.548
595.925, 990.123
596.407, 1102.279
596.889, 1098.541
597.371, 1148.333
597.853, 1252.825
598.335, 1346.222
598.818, 1384.714
599.300, 1405.771
599.782, 1441.907
600.264, 1511.404
600.746, 1579.000
601.228, 1639.965
601.710, 1699.273
602.192, 1765.533
602.674, 1843.290
603.157, 1917.996
603.639, 1984.282
604.121, 2044.079
604.603, 2108.288
605.085, 2176.639
605.567, 2245.782
606.049, 2305.671
606.531, 2364.835
607.013, 2448.727
607.496, 2560.599
607.978, 2675.577
608.460, 2758.988
608.942, 2837.665
609.424, 2949.080
609.906, 3114.557
610.388, 3290.362
610.870, 3448.858
611.353, 3606.396
611.835, 3785.427
612.317, 3994.793
612.799, 4225.314
613.281, 4468.164
613.763, 4728.808
614.245, 5032.203
614.727, 5382.735
615.209, 5764.471
615.692, 6163.359
616.174, 6575.001
616.656, 7041.219
617.138, 7562.583
617.620, 8124.402
618.102, 8705.400
618.584, 9317.990
619.067, 9980.941
619.549, 10690.780
620.031, 11454.596
620.513, 12274.840
620.995, 13154.737
621.477, 14085.129
621.959, 15033.271
622.441, 16061.655
622.923, 17194.012
623.406, 18421.199
623.888, 19746.332
624.370, 21185.645
624.852, 22701.713
625.334, 24271.404
625.816, 25888.018
626.298, 27646.436
626.780, 29556.377
627.263, 31590.420
627.745, 33688.363
628.227, 35865.293
628.709, 38226.055
629.191, 40812.363
629.673, 43458.699
630.155, 46070.438
630.637, 48596.133
631.119, 50890.391
631.602, 53085.988
632.084, 54848.293
632.566, 56031.762
633.048, 56601.492
633.530, 56497.766
634.012, 55620.164
634.494, 54142.934
634.976, 52009.406
635.458, 49247.801
635.941, 46259.457
636.423, 42911.961
636.905, 39509.363
637.387, 36222.492
637.869, 33020.875
638.351, 30028.061
638.833, 27256.084
639.315, 24723.105
639.797, 22430.979
640.280, 20386.537
640.762, 18540.238
641.244, 16885.924
641.726, 15413.095
642.208, 14109.893
642.690, 12971.847
643.172, 11933.885
643.654, 10983.896
644.137, 10120.174
644.619, 9334.487
645.101, 8632.122
645.583, 7999.519
646.065, 7465.631
646.547, 6976.349
647.029, 6528.678
647.511, 6118.358
647.994, 5725.806
648.476, 5350.602
648.958, 5002.147
649.440, 4692.562
649.922, 4416.098
650.404, 4161.945
650.886, 3933.091
651.368, 3720.482
651.851, 3518.896
652.333, 3329.735
652.815, 3154.432
653.297, 3003.344
653.779, 2855.972
654.261, 2693.785
654.743, 2526.331
655.225, 2373.847
655.707, 2248.591
656.190, 2132.611
656.672, 2016.944
657.154, 1903.543
657.636, 1809.258
658.118, 1743.624
658.600, 1678.236
659.082, 1599.967
659.564, 1508.675
660.046, 1409.837
660.529, 1301.358
661.011, 1201.200
661.493, 1125.969
661.975, 1070.977
662.457, 1031.160
662.939, 1009.585
663.421, 983.066
663.903, 923.754
664.385, 852.328
664.868, 795.322
665.350, 764.933
665.832, 745.097
666.314, 743.897
666.796, 749.938
667.278, 735.851
667.760, 685.708
668.242, 641.893
668.724, 615.861
669.207, 605.156
669.689, 596.778
670.171, 591.541
670.653, 584.358
671.135, 567.245
671.617, 546.853
672.099, 539.424
672.581, 544.912
673.064, 551.531
673.546, 550.967
674.028, 547.205
674.510, 541.541
674.992, 530.232
675.474, 531.521
675.956, 564.208
676.438, 606.020
676.920, 633.630
677.403, 641.360
677.885, 644.373
678.367, 640.811
678.849, 636.352
679.331, 639.153
679.813, 648.529
680.295, 670.647
680.778, 714.571
681.260, 764.981
681.742, 783.795
682.224, 778.575
682.706, 781.694
683.188, 817.677
683.670, 863.977
684.152, 900.638
684.634, 928.436
685.117, 962.570
685.599, 1017.092
686.081, 1072.278
686.563, 1117.629
687.045, 1151.060
687.527, 1183.810
688.009, 1215.363
688.491, 1247.834
688.973, 1284.318
689.456, 1325.078
689.938, 1361.122
690.420, 1390.724
690.902, 1419.615
691.384, 1455.552
691.866, 1496.251
692.348, 1537.381
692.830, 1581.328
693.312, 1618.410
693.795, 1646.374
694.277, 1661.761
694.759, 1658.432
695.241, 1617.581
695.723, 1576.721
696.205, 1552.535
696.687, 1536.183
697.169, 1494.332
697.652, 1423.662
698.134, 1335.273
698.616, 1231.055
699.098, 1112.694
699.580, 983.617
700.062, 843.834
700.544, 711.863
701.026, 605.760
701.508, 515.107
701.991, 424.608
702.473, 333.115
702.955, 248.706
703.437, 172.081
703.919, 106.985
704.401, 58.685
704.883, 40.939
705.365, 10.141
705.847, 51.371
706.330, 115.084
706.812, 152.561
707.294, 158.560
707.776, 160.776
708.258, 161.979
708.740, 160.613
709.222, 152.170
709.705, 138.303
710.187, 127.118
710.669, 121.970
711.151, 119.304
711.633, 117.144
712.115, 114.596
712.597, 109.640
713.079, 102.029
713.561, 91.331
714.044, 76.342
714.526, 57.479
715.008, 38.978
715.490, 20.476
715.972, 2.899
716.454, 13.174
716.936, 27.896
717.418, 43.859
717.901, 61.548
718.383, 74.924
718.865, 76.840
719.347, 72.231
719.829, 71.603
720.311, 75.855
720.793, 77.936
721.275, 70.995
721.757, 61.273
722.240, 53.532
722.722, 48.193
723.204, 46.143
723.686, 35.562
724.168, 37.067
724.650, 24.000
725.132, 37.607
725.614, 44.718
726.096, 45.684
726.579, 22.131
727.061, 30.191
727.543, 25.553
728.025, 20.368
728.507, 25.827
728.989, 13.912
729.471, 3.998
729.953, 4.299
730.435, 11.394
730.918, 18.821
731.400, 23.624
731.882, 23.215
732.364, 18.993
732.846, 16.336
733.328, 16.871
733.810, 15.598
734.292, 9.647
734.775, 0.835
735.257, 0.649
735.739, 9.178
736.221, 12.698
736.703, 2.051
737.185, 24.725
737.667, 39.803
738.149, 47.182
738.631, 50.266
739.114, 44.654
739.596, 40.334
740.078, 45.229
740.560, 62.454
741.042, 75.622
741.524, 78.335
742.006, 83.182
742.489, 99.744
742.971, 130.614
743.453, 155.125
743.935, 172.444
744.417, 186.200
744.899, 200.773
745.381, 214.494
745.863, 221.328
746.345, 217.866
746.828, 217.367
747.310, 226.755
747.792, 245.800
748.274, 274.659
748.756, 323.604
749.238, 367.924
749.720, 407.502
750.202, 439.599
750.684, 459.041
751.167, 462.304
751.649, 465.340
752.131, 466.116
752.613, 476.147
753.095, 526.863
753.577, 608.628
754.059, 679.507
754.541, 706.848
755.023, 734.183
755.506, 802.260
755.988, 900.106
756.470, 998.977
756.952, 1090.726
757.434, 1181.183
757.916, 1269.046
758.398, 1356.706
758.880, 1455.908
759.362, 1565.599
759.845, 1688.810
760.327, 1826.947
760.809, 1980.405
761.291, 2151.695
761.773, 2342.960
762.255, 2551.262
762.737, 2778.105
763.219, 3022.229
763.702, 3276.799
764.184, 3540.725
764.666, 3821.135
765.148, 4120.910
765.630, 4445.039
766.112, 4802.745
766.594, 5192.343
767.076, 5585.677
767.558, 5979.567
768.041, 6393.672
768.523, 6859.224
769.005, 7365.327
769.487, 7817.001
769.969, 8210.439
770.451, 8595.428
770.933, 9040.531
771.416, 9492.414
771.898, 9897.314
772.380, 10244.371
772.862, 10535.457
773.344, 10772.845
773.826, 10952.202
774.308, 11075.639
774.790, 11156.930
775.272, 11149.654
775.755, 11043.783
776.237, 10872.092
776.719, 10668.243
777.201, 10429.852
777.683, 10137.736
778.165, 9789.001
778.647, 9403.048
779.129, 8975.390
779.612, 8528.856
780.094, 8103.948
780.576, 7720.613
781.058, 7334.568
781.540, 6916.087
782.022, 6498.214
782.504, 6119.449
782.986, 5789.358
783.468, 5474.284
783.951, 5170.099
784.433, 4884.630
784.915, 4634.711
785.397, 4419.817
785.879, 4235.945
786.361, 4092.877
786.843, 3955.531
787.325, 3772.849
787.807, 3570.109
788.290, 3397.296
788.772, 3293.859
789.254, 3195.103
789.736, 3074.522
790.218, 2947.406
790.700, 2848.252
791.182, 2784.910
791.664, 2724.234
792.146, 2660.289
792.629, 2591.609
793.111, 2511.146
793.593, 2419.902
794.075, 2332.502
794.557, 2252.617
795.039, 2183.198
795.521, 2126.704
796.003, 2080.966
796.485, 2040.148
796.968, 2010.728
797.450, 1976.054
797.932, 1930.325
798.414, 1876.765
798.896, 1825.990
799.378, 1777.296
799.860, 1734.946
800.343, 1706.296
800.825, 1682.048
801.307, 1630.832
801.789, 1559.466
802.271, 1498.929
802.753, 1477.676
803.235, 1464.940
803.717, 1440.307
804.199, 1404.587
804.682, 1366.147
805.164, 1323.047
805.646, 1281.754
806.128, 1246.766
806.610, 1215.806
807.092, 1169.905
807.574, 1106.957
808.056, 1047.590
808.539, 1006.333
809.021, 975.317
809.503, 937.302
809.985, 894.579
810.467, 859.717
810.949, 854.318
811.431, 845.990
811.913, 809.198
812.395, 744.386
812.878, 698.541
813.360, 685.137
813.842, 671.425
814.324, 643.954
814.806, 604.469
815.288, 561.188
815.770, 513.902
816.252, 472.914
816.734, 448.601
817.217, 431.704
817.699, 410.532
818.181, 385.088
818.663, 359.254
819.145, 340.535
819.627, 316.538
820.109, 272.981
820.591, 210.664
821.073, 178.171
821.556, 185.079
822.038, 194.494
822.520, 187.539
823.002, 166.442
823.484, 135.895
823.966, 97.535
824.448, 65.025
824.930, 49.300
825.413, 42.796
825.895, 41.997
826.377, 46.219
826.859, 47.741
827.341, 47.200
827.823, 40.427
828.305, 21.882
828.787, 7.520
829.269, 18.799
829.752, 9.785
830.234, 0.585
830.716, 2.133
831.198, 11.113
831.680, 11.604
832.162, 4.541
832.644, 0.693
833.127, 13.095
833.609, 24.341
834.091, 21.191
834.573, 1.882
835.055, 5.116
835.537, 8.844
836.019, 17.998
836.501, 7.262
836.983, 19.285
837.466, 36.110
837.948, 43.663
838.430, 53.240
838.912, 74.090
839.394, 99.463
839.876, 121.542
840.358, 140.729
840.840, 165.615
841.322, 174.069
841.805, 216.102
842.287, 250.058
842.769, 276.543
843.251, 273.790
843.733, 311.802
844.215, 333.544
844.697, 354.132
845.179, 387.476
845.661, 398.033
846.144, 426.174
846.626, 449.608
847.108, 445.033
847.590, 442.056
848.072, 460.810
848.554, 498.431
849.036, 524.716
849.518, 538.375
850.000, 547.223
850.483, 549.491
850.965, 546.461
851.447, 556.188
851.929, 577.940
852.411, 595.674
852.893, 596.954
853.375, 591.451
853.857, 587.910
854.340, 585.855
854.822, 582.878
855.304, 571.070
855.786, 565.546
856.268, 573.950
856.750, 592.224
857.232, 601.606
857.714, 600.461
858.196, 607.103
858.679, 632.636
859.161, 665.849
859.643, 689.677
860.125, 704.439
860.607, 712.437
861.089, 711.490
861.571, 707.815
862.054, 701.730
862.536, 694.965
863.018, 693.211
863.500, 700.538
863.982, 701.143
864.464, 687.357
864.946, 670.227
865.428, 680.913
865.910, 710.892
866.393, 724.205
866.875, 697.493
867.357, 664.560
867.839, 649.988
868.321, 646.408
868.803, 640.666
869.285, 626.414
869.767, 614.982
870.250, 607.768
870.732, 603.476
871.214, 599.815
871.696, 596.888
872.178, 597.724
872.660, 604.831
873.142, 610.167
873.624, 603.591
874.106, 589.935
874.589, 575.312
875.071, 555.323
875.553, 545.154
876.035, 563.938
876.517, 583.758
876.999, 574.705
877.481, 530.521
877.963, 495.044
878.445, 472.192
878.928, 457.997
879.410, 451.592
879.892, 449.666
880.374, 447.188
880.856, 444.329
881.338, 434.910
881.820, 412.327
882.302, 384.393
882.784, 356.261
883.267, 325.640
883.749, 304.913
884.231, 296.553
884.713, 291.764
885.195, 282.918
885.677, 271.664
886.159, 264.811
886.641, 262.310
887.123, 255.756
887.606, 235.437
888.088, 213.935
888.570, 199.037
889.052, 191.645
889.534, 191.778
890.016, 208.726
890.498, 216.095
890.981, 193.693
891.463, 148.233
891.945, 128.988
892.427, 134.037
892.909, 135.699
893.391, 105.963
893.873, 73.099
894.355, 65.125
894.837, 78.616
895.320, 87.822
895.802, 89.847
896.284, 82.969
896.766, 61.052
897.248, 31.744
897.730, 25.518
898.212, 41.495
898.694, 52.344
899.177, 45.905
899.659, 29.812
900.141, 5.637
900.623, 20.903
901.105, 37.007
901.587, 31.649
902.069, 23.566
902.551, 13.232
903.033, 4.117
903.516, 3.094
903.998, 10.604
904.480, 19.010
904.962, 28.361
905.444, 33.165
905.926, 17.736
906.408, 4.313
906.890, 7.690
907.372, 27.633
907.855, 51.030
908.337, 35.123
908.819, 9.260
909.301, 1.403
909.783, 6.487
910.265, 12.119
910.747, 14.582
911.229, 15.303
911.711, 17.363
912.194, 17.969
912.676, 10.829
913.158, 5.265
913.640, 19.915
914.122, 31.191
914.604, 36.665
915.086, 33.838
915.568, 22.382
916.050, 11.545
916.533, 0.523
917.015, 5.885
917.497, 2.637
917.979, 6.584
918.461, 15.079
918.943, 22.785
919.425, 29.427
919.907, 36.383
920.390, 40.785
920.872, 41.148
921.354, 37.818
921.836, 30.164
922.318, 14.820
922.800, 9.375
923.282, 23.154
923.764, 43.776
924.247, 46.811
924.729, 37.701
925.211, 31.169
925.693, 34.934
926.175, 39.814
926.657, 44.733
927.139, 47.136
927.621, 42.718
928.104, 27.431
928.586, 17.492
929.068, 14.142
929.550, 17.269
930.032, 32.717
930.514, 53.588
930.996, 62.828
931.478, 56.200
931.960, 47.523
932.443, 42.162
932.925, 39.481
933.407, 39.806
933.889, 43.774
934.371, 45.460
934.853, 44.328
935.335, 42.802
935.817, 43.256
936.299, 44.364
936.782, 41.777
937.264, 36.117
937.746, 32.208
938.228, 35.537
938.710, 38.594
939.192, 34.768
939.674, 26.620
940.156, 27.995
940.638, 41.518
941.121, 54.483
941.603, 62.987
942.085, 68.447
942.567, 71.078
943.049, 72.773
943.531, 78.715
944.013, 96.873
944.495, 111.665
944.978, 113.925
945.460, 110.583
945.942, 111.208
946.424, 116.722
946.906, 122.938
947.388, 129.625
947.870, 136.577
948.352, 145.379
948.834, 153.711
949.317, 154.154
949.799, 143.773
950.281, 142.294
950.763, 170.522
951.245, 200.420
951.727, 212.482
952.209, 205.263
952.692, 208.280
953.174, 223.082
953.656, 237.204
954.138, 239.466
954.620, 237.469
955.102, 247.452
955.584, 265.767
956.066, 276.684
956.548, 259.197
957.031, 249.752
957.513, 263.904
957.995, 292.455
958.477, 313.947
958.959, 329.223
959.441, 335.392
959.923, 329.356
960.405, 319.905
960.888, 314.578
961.370, 313.734
961.852, 318.505
962.334, 331.258
962.816, 345.790
963.298, 363.278
963.780, 381.164
964.262, 396.889
964.744, 409.035
965.227, 415.581
965.709, 417.006
966.191, 416.859
966.673, 408.708
967.155, 404.529
967.637, 422.946
968.119, 464.127
968.601, 489.406
969.083, 478.787
969.566, 469.675
970.048, 476.135
970.530, 493.413
971.012, 502.638
971.494, 503.343
971.976, 495.957
972.458, 473.325
972.940, 451.991
973.422, 447.409
973.905, 452.872
974.387, 456.610
974.869, 461.914
975.351, 454.777
975.833, 429.050
976.315, 400.268
976.797, 390.577
977.279, 394.494
977.761, 390.460
978.244, 375.274
978.726, 358.019
979.208, 340.062
979.690, 326.057
980.172, 323.986
980.654, 335.715
981.136, 327.636
981.619, 294.227
982.101, 259.530
982.583, 235.161
983.065, 218.183
983.547, 200.159
984.029, 183.425
984.511, 176.158
984.993, 194.148
985.475, 208.628
985.958, 207.568
986.440, 196.682
986.922, 183.839
987.404, 168.791
987.886, 153.063
988.368, 135.574
988.850, 122.568
989.332, 126.551
989.815, 137.124
990.297, 139.920
990.779, 131.381
991.261, 119.414
991.743, 97.963
992.225, 82.519
992.707, 84.370
993.189, 101.584
993.671, 108.819
994.154, 106.603
994.636, 105.681
995.118, 107.531
995.600, 118.045
996.082, 156.261
996.564, 208.670
997.046, 228.262
997.528, 193.837
998.010, 158.882
998.493, 129.347
998.975, 107.466
999.457, 100.174
999.939, 105.378
1000.421, 111.511
1000.903, 113.569
1001.385, 113.367
1001.867, 108.844
1002.349, 104.589
1002.832, 104.245
1003.314, 106.736
1003.796, 111.662
1004.278, 120.248
1004.760, 128.354
1005.242, 132.596
1005.724, 134.127
1006.206, 131.723
1006.689, 127.262
1007.171, 127.980
1007.653, 142.334
1008.135, 155.276
1008.617, 162.584
1009.099, 166.560
1009.581, 172.937
1010.063, 180.611
1010.545, 185.460
1011.028, 186.734
1011.510, 184.914
1011.992, 177.322
1012.474, 167.007
1012.956, 154.787
1013.438, 138.495
1013.920, 128.384
1014.402, 124.795
1014.885, 128.370
1015.367, 144.026
1015.849, 166.386
1016.331, 173.703
1016.813, 167.983
1017.295, 160.196
1017.777, 155.281
1018.259, 150.731
1018.741, 142.611
1019.224, 134.884
1019.706, 137.452
1020.188, 153.737
1020.670, 161.101
1021.152, 154.748
1021.634, 143.918
1022.116, 134.674
1022.598, 130.240
1023.081, 138.516
1023.563, 164.454
1024.045, 179.762
1024.527, 165.291
1025.009, 154.654
1025.491, 167.622
1025.973, 198.930
1026.455, 209.269
1026.938, 200.580
1027.420, 192.330
1027.902, 199.502
1028.384, 206.459
1028.866, 198.745
1029.348, 183.821
1029.830, 177.781
1030.312, 184.745
1030.794, 191.585
1031.276, 197.399
1031.759, 201.857
1032.241, 204.841
1032.723, 206.154
1033.205, 203.298
1033.687, 195.694
1034.169, 194.274
1034.651, 212.252
1035.133, 228.396
1035.616, 231.454
1036.098, 224.310
1036.580, 226.484
1037.062, 237.436
1037.544, 241.164
1038.026, 225.099
1038.508, 207.506
1038.990, 206.331
1039.473, 214.888
1039.955, 222.938
1040.437, 235.478
1040.919, 237.254
1041.401, 225.554
1041.883, 212.485
1042.365, 209.895
1042.847, 213.674
1043.329, 213.374
1043.812, 208.624
1044.294, 202.957
1044.776, 196.979
1045.258, 192.090
1045.740, 191.202
1046.222, 191.316
1046.704, 180.757
1047.186, 159.212
1047.668, 138.866
1048.151, 121.740
1048.633, 110.947
1049.115, 117.369
1049.597, 127.969
1050.079, 123.978
1050.561, 87.625
1051.043, 77.575
1051.525, 104.059
1052.008, 134.701
1052.490, 151.817
1052.972, 154.161
1053.454, 130.697
1053.936, 86.642
1054.418, 48.215
1054.900, 25.557
1055.382, 14.625
1055.865, 25.766
1056.347, 41.592
1056.829, 25.635
1057.311, 23.981
1057.793, 39.465
1058.275, 5.371
1058.757, 31.510
1059.239, 20.010
1059.721, 7.985
1060.203, 19.575
1060.686, 8.362
1061.168, 4.570
1061.650, 13.985
1062.132, 17.727
1062.614, 3.572
1063.096, 17.964
1063.578, 19.151
1064.060, 6.954
1064.543, 0.469
1065.025, 6.555
1065.507, 15.081
1065.989, 0.506
1066.471, 1.681
1066.953, 9.320
1067.435, 0.769
1067.917, 5.736
1068.400, 5.850
1068.882, 13.396
1069.364, 7.987
1069.846, 17.204
1070.328, 17.029
1070.810, 10.982
1071.292, 9.419
1071.774, 15.827
1072.256, 15.646
1072.739, 3.421
1073.221, 11.074
1073.703, 11.912
1074.185, 5.367
1074.667, 3.338
1075.149, 9.815
1075.631, 13.506
1076.113, 7.539
1076.596, 3.183
1077.078, 8.126
1077.560, 19.614
1078.042, 19.236
1078.524, 8.970
1079.006, 1.600
1079.488, 6.231
1079.970, 12.594
1080.453, 17.337
1080.935, 19.188
1081.417, 15.128
1081.899, 1.994
1082.381, 0.621
1082.863, 9.402
1083.345, 22.168
1083.827, 28.365
1084.309, 32.391
1084.792, 40.393
1085.274, 52.110
1085.756, 59.627
1086.238, 61.273
1086.720, 59.799
1087.202, 55.146
1087.684, 48.727
1088.166, 40.626
1088.648, 33.188
1089.131, 34.832
1089.613, 51.706
1090.095, 60.884
1090.577, 38.966
1091.059, 19.825
1091.541, 26.464
1092.023, 56.252
1092.505, 73.114
1092.988, 77.498
1093.470, 76.046
1093.952, 72.464
1094.434, 64.174
1094.916, 38.563
1095.398, 10.685
1095.880, 11.028
1096.362, 59.625
1096.844, 62.277
1097.327, 4.050
1097.809, 48.303
1098.291, 16.824
1098.773, 49.180
1099.255, 83.784
1099.737, 86.820
1100.219, 91.408
1100.701, 113.548
1101.183, 122.508
1101.666, 105.423
1102.148, 81.352
1102.630, 90.953
1103.112, 121.814
1103.594, 135.746
1104.076, 121.814
1104.558, 108.615
1105.040, 112.672
1105.523, 117.416
1106.005, 109.792
1106.487, 93.322
1106.969, 103.858
1107.451, 139.320
1107.933, 168.934
1108.415, 178.359
1108.897, 179.255
1109.380, 176.311
1109.862, 171.892
1110.344, 168.976
1110.826, 167.290
1111.308, 169.774
1111.790, 177.262
1112.272, 183.737
1112.754, 183.284
1113.236, 180.139
1113.719, 177.870
1114.201, 177.242
1114.683, 181.647
1115.165, 194.151
1115.647, 202.875
1116.129, 207.611
1116.611, 213.043
1117.093, 233.101
1117.575, 258.730
1118.058, 271.328
1118.540, 269.616
1119.022, 258.191
1119.504, 220.868
1119.986, 195.207
1120.468, 200.356
1120.950, 224.196
1121.432, 229.080
1121.915, 218.526
1122.397, 211.075
1122.879, 212.766
1123.361, 218.219
1123.843, 226.642
1124.325, 235.706
1124.807, 243.686
1125.289, 251.830
1125.771, 251.365
1126.254, 242.049
1126.736, 236.549
1127.218, 248.137
1127.700, 262.544
1128.182, 269.883
1128.664, 272.496
1129.146, 272.508
1129.628, 267.006
1130.110, 269.559
1130.593, 283.783
1131.075, 295.219
1131.557, 288.324
1132.039, 271.980
1132.521, 252.283
1133.003, 232.374
1133.485, 227.998
1133.967, 251.729
1134.450, 273.776
1134.932, 292.282
1135.414, 300.712
1135.896, 281.084
1136.378, 246.305
1136.860, 225.977
1137.342, 225.704
1137.824, 224.734
1138.307, 210.172
1138.789, 200.583
1139.271, 204.379
1139.753, 216.501
1140.235, 225.492
1140.717, 230.683
1141.199, 227.697
1141.681, 209.502
1142.163, 195.648
1142.646, 197.601
1143.128, 188.475
1143.610, 203.929
1144.092, 213.159
1144.574, 217.105
1145.056, 199.387
1145.538, 209.067
1146.020, 207.771
1146.502, 205.388
1146.985, 218.097
1147.467, 202.600
1147.949, 215.167
1148.431, 217.033
1148.913, 216.378
1149.395, 206.547
1149.877, 203.051
1150.359, 176.705
1150.842, 148.345
1151.324, 136.935
1151.806, 140.524
1152.288, 127.406
1152.770, 144.603
1153.252, 153.699
1153.734, 155.506
1154.216, 128.717
1154.698, 139.057
1155.181, 134.331
1155.663, 125.715
1156.145, 139.726
1156.627, 116.993
1157.109, 130.031
1157.591, 128.697
1158.073, 130.646
1158.555, 133.858
1159.037, 137.055
1159.520, 139.145
1160.002, 138.695
1160.484, 135.806
1160.966, 126.182
1161.448, 101.929
1161.930, 83.249
1162.412, 81.290
1162.894, 90.010
1163.377, 92.729
1163.859, 91.276
1164.341, 90.910
1164.823, 96.435
1165.305, 97.625
1165.787, 87.934
1166.269, 77.610
1166.751, 75.620
1167.234, 79.553
1167.716, 69.528
1168.198, 49.593
1168.680, 40.571
1169.162, 29.793
1169.644, 46.355
1170.126, 56.270
1170.608, 59.894
1171.090, 38.429
1171.573, 49.410
1172.055, 47.332
1172.537, 44.713
1173.019, 60.174
1173.501, 42.326
1173.983, 57.494
1174.465, 59.467
1174.947, 58.376
1175.430, 54.936
1175.912, 68.378
1176.394, 69.190
1176.876, 52.743
1177.358, 35.528
1177.840, 28.937
1178.322, 27.985
1178.804, 31.179
1179.286, 37.036
1179.769, 39.897
1180.251, 39.325
1180.733, 45.151
1181.215, 62.224
1181.697, 74.633
1182.179, 60.031
1182.661, 39.012
1183.143, 32.632
1183.625, 41.308
1184.108, 45.016
1184.590, 43.680
1185.072, 36.462
1185.554, 18.152
1186.036, 5.052
1186.518, 26.528
1187.000, 57.062
1187.482, 61.268
1187.965, 28.981
1188.447, 13.688
1188.929, 17.146
1189.411, 27.405
1189.893, 43.177
1190.375, 56.778
1190.857, 55.533
1191.339, 46.347
1191.822, 41.084
1192.304, 43.913
1192.786, 44.925
1193.268, 44.260
1193.750, 41.111
1194.232, 31.589
1194.714, 21.530
1195.196, 17.091
1195.678, 18.736
1196.161, 26.552
1196.643, 9.867
1197.125, 23.043
1197.607, 28.977
1198.089, 27.992
1198.571, 0.366
1199.053, 6.598
1199.535, 0.612
1200.017, 8.413
1200.500, 3.478
1200.982, 20.965
1201.464, 11.344
1201.946, 11.887
1202.428, 4.938
1202.910, 4.952
1203.392, 5.171
1203.874, 10.522
1204.357, 40.088
1204.839, 48.998
1205.321, 19.808
1205.803, 1.191
1206.285, 3.587
1206.767, 2.766
1207.249, 8.994
1207.731, 12.022
1208.214, 2.807
1208.696, 20.476
1209.178, 29.680
1209.660, 16.546
1210.142, 1.120
1210.624, 12.370
1211.106, 21.983
1211.588, 21.056
1212.070, 15.470
1212.552, 15.859
1213.035, 25.494
1213.517, 33.064
1213.999, 37.998
1214.481, 37.349
1214.963, 16.867
1215.445, 6.600
1215.927, 23.308
1216.409, 33.456
1216.892, 37.402
1217.374, 16.573
1217.856, 27.707
1218.338, 29.000
1218.820, 32.916
1219.302, 40.831
1219.784, 47.319
1220.266, 33.564
1220.749, 11.984
1221.231, 8.808
1221.713, 43.552
1222.195, 70.907
1222.677, 91.310
1223.159, 97.763
1223.641, 77.204
1224.123, 45.412
1224.605, 28.914
1225.088, 25.876
1225.570, 31.706
1226.052, 55.934
1226.534, 71.717
1227.016, 77.994
1227.498, 78.431
1227.980, 67.746
1228.462, 57.807
1228.944, 47.594
1229.427, 64.587
1229.909, 75.009
1230.391, 79.101
1230.873, 58.376
1231.355, 69.687
1231.837, 68.183
1232.319, 66.153
1232.801, 82.093
1233.284, 65.118
1233.766, 79.058
1234.248, 78.856
1234.730, 63.725
1235.212, 53.728
1235.694, 51.041
1236.176, 52.879
1236.658, 59.022
1237.141, 66.333
1237.623, 71.912
1238.105, 75.026
1238.587, 75.046
1239.069, 69.202
1239.551, 69.740
1240.033, 80.085
1240.515, 87.739
1240.997, 74.744
1241.479, 56.699
1241.962, 51.540
1242.444, 59.584
1242.926, 67.507
1243.408, 75.078
1243.890, 78.124
1244.372, 74.739
1244.854, 71.882
1245.336, 79.016
1245.819, 89.120
1246.301, 96.312
1246.783, 99.114
1247.265, 97.308
1247.747, 88.784
1248.229, 87.927
1248.711, 104.262
1249.193, 117.478
1249.676, 106.113
1250.158, 84.848
1250.640, 62.831
1251.122, 44.910
1251.604, 43.876
1252.086, 55.841
1252.568, 64.921
1253.050, 64.867
1253.532, 58.279
1254.015, 39.095
1254.497, 23.980
1254.979, 22.287
1255.461, 39.322
1255.943, 52.150
1256.425, 60.371
1256.907, 51.249
1257.389, 64.845
1257.871, 69.003
1258.354, 77.627
1258.836, 73.259
1259.318, 61.126
1259.800, 43.386
1260.282, 37.485
1260.764, 42.181
1261.246, 44.919
1261.728, 40.229
1262.211, 38.695
1262.693, 50.679
1263.175, 63.217
1263.657, 70.670
1264.139, 72.358
1264.621, 59.457
1265.103, 37.434
1265.585, 27.230
1266.068, 40.508
1266.550, 52.918
1267.032, 56.080
1267.514, 56.704
1267.996, 59.977
1268.478, 62.027
1268.960, 45.910
1269.442, 18.964
1269.924, 0.165
1270.407, 5.918
1270.889, 1.808
1271.371, 31.134
1271.853, 55.946
1272.335, 58.636
1272.817, 48.542
1273.299, 43.827
1273.781, 42.332
1274.264, 38.896
1274.746, 30.751
1275.228, 22.788
1275.710, 13.496
1276.192, 10.997
1276.674, 24.029
1277.156, 42.519
1277.638, 55.323
1278.120, 61.331
1278.603, 56.422
1279.085, 33.264
1279.567, 23.615
1280.049, 28.786
1280.531, 37.106
1281.013, 44.662
1281.495, 48.744
1281.977, 40.638
1282.459, 29.380
1282.942, 30.179
1283.424, 51.416
1283.906, 58.388
1284.388, 51.081
1284.870, 42.599
1285.352, 43.423
1285.834, 41.713
1286.316, 21.996
1286.799, 1.154
1287.281, 0.846
1287.763, 16.189
1288.245, 26.149
1288.727, 29.194
1289.209, 26.693
1289.691, 12.282
1290.173, 1.122
1290.656, 1.336
1291.138, 0.203
1291.620, 10.569
1292.102, 26.149
1292.584, 36.933
1293.066, 35.716
1293.548, 32.713
1294.030, 17.623
1294.512, 0.000
##END=



