##NAMES=Cyrilovite
##RRUFFID=R060504
##IDEAL CHEMISTRY=NaFe^3+^_3_(PO_4_)_2_(OH)_4_&#183;2H_2_O
##LOCALITY=Gunheath pit, St. Austell, Cornwall, England
##OWNER=RRUFF
##SOURCE=Michael Scott
##DESCRIPTION=Group of yellowish-brown indistinct small crystals associated with leucophosphite, R060338, and green chalcosiderite, R060339
##STATUS=The identification of this mineral has been confirmed by single-crystal X-ray diffraction.
##URL=rruff.info/R060504
113.808, 0.000
114.290, 60.118
114.772, 96.052
115.255, 102.667
115.737, 70.959
116.219, 61.326
116.701, 30.602
117.183, 6.593
117.665, 16.501
118.147, 45.314
118.629, 54.931
119.112, 27.677
119.594, 24.613
120.076, 81.815
120.558, 137.947
121.040, 189.776
121.522, 231.694
122.004, 257.036
122.486, 282.346
122.968, 324.840
123.451, 378.904
123.933, 428.988
124.415, 447.835
124.897, 455.837
125.379, 483.888
125.861, 540.930
126.343, 619.136
126.825, 703.330
127.307, 794.051
127.790, 908.966
128.272, 1075.171
128.754, 1279.974
129.236, 1489.738
129.718, 1672.852
130.200, 1852.738
130.682, 2092.618
131.164, 2391.072
131.646, 2741.193
132.129, 3136.979
132.611, 3580.353
133.093, 4057.868
133.575, 4572.822
134.057, 5119.349
134.539, 5691.370
135.021, 6286.637
135.503, 6912.555
135.986, 7580.908
136.468, 8304.605
136.950, 9034.882
137.432, 9749.587
137.914, 10454.660
138.396, 11124.714
138.878, 11742.563
139.360, 12321.940
139.842, 12925.163
140.325, 13583.100
140.807, 14193.924
141.289, 14661.155
141.771, 14970.778
142.253, 15202.262
142.735, 15364.664
143.217, 15459.466
143.699, 15480.799
144.182, 15434.327
144.664, 15310.252
145.146, 15094.482
145.628, 14759.168
146.110, 14374.623
146.592, 13948.540
147.074, 13462.765
147.556, 12994.812
148.038, 12543.966
148.521, 12105.268
149.003, 11675.190
149.485, 11210.345
149.967, 10787.245
150.449, 10429.580
150.931, 10152.517
151.413, 9906.916
151.895, 9692.880
152.378, 9509.749
152.860, 9359.765
153.342, 9255.975
153.824, 9178.278
154.306, 9119.425
154.788, 9067.756
155.270, 9051.606
155.752, 9087.243
156.234, 9166.682
156.717, 9255.471
157.199, 9315.994
157.681, 9401.748
158.163, 9544.440
158.645, 9788.459
159.127, 10053.613
159.609, 10319.446
160.091, 10586.465
160.574, 10866.227
161.056, 11169.211
161.538, 11482.451
162.020, 11793.885
162.502, 12090.398
162.984, 12389.261
163.466, 12710.156
163.948, 13054.660
164.430, 13366.609
164.913, 13590.153
165.395, 13768.394
165.877, 13963.590
166.359, 14214.687
166.841, 14481.426
167.323, 14744.220
167.805, 15005.040
168.287, 15244.229
168.770, 15448.724
169.252, 15621.017
169.734, 15767.740
170.216, 15918.186
170.698, 16033.099
171.180, 16085.229
171.662, 16060.286
172.144, 15938.631
172.626, 15668.346
173.109, 15267.650
173.591, 14798.687
174.073, 14291.624
174.555, 13738.155
175.037, 13111.696
175.519, 12387.863
176.001, 11620.332
176.483, 10857.401
176.965, 10097.738
177.448, 9369.331
177.930, 8697.191
178.412, 8067.363
178.894, 7454.543
179.376, 6848.012
179.858, 6268.312
180.340, 5752.729
180.822, 5303.719
181.305, 4885.930
181.787, 4471.242
182.269, 4069.098
182.751, 3717.883
183.233, 3446.291
183.715, 3226.572
184.197, 3011.938
184.679, 2800.707
185.161, 2594.995
185.644, 2377.968
186.126, 2160.917
186.608, 1985.820
187.090, 1887.256
187.572, 1842.344
188.054, 1777.943
188.536, 1691.450
189.018, 1600.858
189.501, 1534.488
189.983, 1490.183
190.465, 1435.235
190.947, 1346.711
191.429, 1231.790
191.911, 1141.606
192.393, 1080.159
192.875, 1032.113
193.357, 977.312
193.840, 915.701
194.322, 850.773
194.804, 777.194
195.286, 696.583
195.768, 637.777
196.250, 606.799
196.732, 588.536
197.214, 552.172
197.697, 494.333
198.179, 444.897
198.661, 422.038
199.143, 426.604
199.625, 430.696
200.107, 430.711
200.589, 432.343
201.071, 454.248
201.553, 502.979
202.036, 544.709
202.518, 554.479
203.000, 527.323
203.482, 514.370
203.964, 527.062
204.446, 552.021
204.928, 542.460
205.410, 485.018
205.893, 430.881
206.375, 413.669
206.857, 436.418
207.339, 479.059
207.821, 548.207
208.303, 634.001
208.785, 691.302
209.267, 711.652
209.749, 722.264
210.232, 739.663
210.714, 761.738
211.196, 801.447
211.678, 864.468
212.160, 948.616
212.642, 1032.373
213.124, 1114.553
213.606, 1201.617
214.089, 1301.649
214.571, 1425.450
215.053, 1532.808
215.535, 1611.768
216.017, 1665.548
216.499, 1738.608
216.981, 1840.315
217.463, 1947.897
217.945, 2038.150
218.428, 2097.154
218.910, 2167.916
219.392, 2257.835
219.874, 2366.707
220.356, 2479.601
220.838, 2584.954
221.320, 2706.077
221.802, 2870.495
222.285, 3099.909
222.767, 3322.225
223.249, 3514.024
223.731, 3674.372
224.213, 3863.987
224.695, 4100.095
225.177, 4350.770
225.659, 4583.975
226.141, 4788.128
226.624, 4996.238
227.106, 5219.915
227.588, 5461.244
228.070, 5688.197
228.552, 5904.260
229.034, 6100.827
229.516, 6260.257
229.998, 6360.117
230.480, 6462.977
230.963, 6588.262
231.445, 6741.390
231.927, 6873.150
232.409, 6983.992
232.891, 7077.650
233.373, 7161.506
233.855, 7253.302
234.337, 7300.785
234.820, 7285.142
235.302, 7196.443
235.784, 7099.342
236.266, 6992.018
236.748, 6870.687
237.230, 6735.979
237.712, 6596.116
238.194, 6433.693
238.676, 6237.752
239.159, 5995.038
239.641, 5776.106
240.123, 5579.964
240.605, 5401.585
241.087, 5238.893
241.569, 5097.197
242.051, 4967.434
242.533, 4844.920
243.016, 4723.404
243.498, 4627.513
243.980, 4554.088
244.462, 4509.354
244.944, 4506.303
245.426, 4566.078
245.908, 4634.541
246.390, 4691.812
246.872, 4731.938
247.355, 4799.980
247.837, 4906.982
248.319, 5033.242
248.801, 5150.357
249.283, 5256.316
249.765, 5357.643
250.247, 5458.998
250.729, 5568.621
251.212, 5644.652
251.694, 5687.851
252.176, 5697.147
252.658, 5669.793
253.140, 5609.602
253.622, 5508.864
254.104, 5360.034
254.586, 5157.969
255.068, 4942.537
255.551, 4714.762
256.033, 4471.535
256.515, 4206.618
256.997, 3901.739
257.479, 3617.996
257.961, 3375.933
258.443, 3183.216
258.925, 2976.413
259.408, 2745.983
259.890, 2507.794
260.372, 2276.134
260.854, 2034.632
261.336, 1834.450
261.818, 1695.689
262.300, 1627.797
262.782, 1570.440
263.264, 1531.480
263.746, 1494.515
264.229, 1433.120
264.711, 1336.576
265.193, 1240.691
265.675, 1154.364
266.157, 1077.933
266.639, 1012.976
267.121, 961.131
267.603, 919.119
268.086, 879.226
268.568, 837.550
269.050, 813.283
269.532, 820.811
270.014, 863.573
270.496, 882.336
270.978, 871.701
271.460, 845.876
271.943, 819.409
272.425, 789.479
272.907, 773.074
273.389, 781.723
273.871, 816.004
274.353, 827.286
274.835, 805.888
275.317, 781.012
275.799, 794.454
276.282, 853.529
276.764, 908.279
277.246, 940.934
277.728, 953.036
278.210, 973.144
278.692, 1004.216
279.174, 1035.047
279.656, 1049.883
280.138, 1046.949
280.621, 1046.891
281.103, 1059.552
281.585, 1081.240
282.067, 1087.061
282.549, 1075.980
283.031, 1051.480
283.513, 1018.738
283.995, 977.730
284.478, 917.848
284.960, 829.936
285.442, 721.305
285.924, 621.414
286.406, 530.242
286.888, 446.847
287.370, 375.088
287.852, 313.343
288.335, 239.312
288.817, 140.600
289.299, 28.598
289.781, 69.438
290.263, 153.471
290.745, 224.349
291.227, 278.918
291.709, 319.538
292.191, 356.560
292.674, 400.125
293.156, 436.419
293.638, 424.404
294.120, 364.778
294.602, 305.477
295.084, 291.324
295.566, 310.239
296.048, 326.036
296.530, 337.514
297.013, 333.483
297.495, 282.146
297.977, 187.550
298.459, 99.355
298.941, 58.454
299.423, 47.750
299.905, 30.902
300.387, 1.575
300.870, 39.042
301.352, 73.493
301.834, 103.420
302.316, 121.065
302.798, 106.464
303.280, 79.928
303.762, 39.336
304.244, 69.219
304.727, 55.029
305.209, 57.751
305.691, 37.481
306.173, 22.910
306.655, 13.745
307.137, 25.884
307.619, 10.737
308.101, 6.667
308.583, 3.146
309.065, 15.553
309.548, 16.188
310.030, 11.668
310.512, 0.766
310.994, 11.717
311.476, 25.656
311.958, 43.582
312.440, 47.028
312.922, 9.866
313.405, 46.710
313.887, 88.786
314.369, 74.541
314.851, 62.964
315.333, 93.655
315.815, 173.254
316.297, 254.716
316.779, 311.248
317.262, 360.199
317.744, 422.433
318.226, 521.795
318.708, 620.043
319.190, 696.488
319.672, 750.020
320.154, 817.838
320.636, 914.062
321.118, 1028.160
321.601, 1150.882
322.083, 1282.938
322.565, 1421.408
323.047, 1569.860
323.529, 1727.326
324.011, 1873.843
324.493, 1994.182
324.975, 2109.473
325.457, 2233.362
325.940, 2393.533
326.422, 2532.654
326.904, 2634.895
327.386, 2706.594
327.868, 2781.283
328.350, 2861.219
328.832, 2943.325
329.314, 3026.706
329.797, 3125.736
330.279, 3205.562
330.761, 3257.575
331.243, 3290.046
331.725, 3325.781
332.207, 3374.913
332.689, 3415.571
333.171, 3436.800
333.654, 3428.240
334.136, 3435.605
334.618, 3469.115
335.100, 3512.874
335.582, 3535.242
336.064, 3527.152
336.546, 3517.361
337.028, 3512.954
337.510, 3511.962
337.992, 3517.429
338.475, 3532.332
338.957, 3549.270
339.439, 3553.549
339.921, 3539.585
340.403, 3542.055
340.885, 3578.245
341.367, 3644.092
341.849, 3686.859
342.332, 3699.893
342.814, 3712.909
343.296, 3763.341
343.778, 3850.555
344.260, 3926.464
344.742, 3973.369
345.224, 4003.969
345.706, 4059.484
346.189, 4142.364
346.671, 4224.398
347.153, 4278.820
347.635, 4308.986
348.117, 4337.493
348.599, 4371.002
349.081, 4403.029
349.563, 4421.363
350.045, 4426.758
350.528, 4424.833
351.010, 4428.940
351.492, 4429.266
351.974, 4401.807
352.456, 4337.637
352.938, 4257.137
353.420, 4180.355
353.902, 4105.187
354.384, 4024.349
354.867, 3931.658
355.349, 3838.076
355.831, 3756.398
356.313, 3688.176
356.795, 3621.173
357.277, 3544.875
357.759, 3464.645
358.241, 3389.935
358.724, 3326.592
359.206, 3269.354
359.688, 3213.444
360.170, 3158.542
360.652, 3111.999
361.134, 3071.680
361.616, 3042.574
362.098, 3025.868
362.581, 3057.073
363.063, 3078.924
363.545, 3066.512
364.027, 3025.890
364.509, 2995.923
364.991, 2974.872
365.473, 2974.417
365.955, 3001.557
366.437, 3093.438
366.919, 3163.528
367.402, 3184.569
367.884, 3175.144
368.366, 3185.488
368.848, 3240.371
369.330, 3295.646
369.812, 3336.432
370.294, 3356.374
370.776, 3385.246
371.259, 3432.747
371.741, 3484.488
372.223, 3514.290
372.705, 3494.652
373.187, 3440.930
373.669, 3426.855
374.151, 3405.800
374.633, 3377.133
375.116, 3315.163
375.598, 3297.287
376.080, 3261.907
376.562, 3225.812
377.044, 3204.442
377.526, 3148.130
378.008, 3115.120
378.490, 3047.789
378.973, 2943.864
379.455, 2818.385
379.937, 2673.594
380.419, 2512.439
380.901, 2358.162
381.383, 2218.004
381.865, 2081.953
382.347, 1931.651
382.829, 1768.719
383.311, 1610.466
383.794, 1470.582
384.276, 1342.200
384.758, 1199.318
385.240, 1038.049
385.722, 881.081
386.204, 749.434
386.686, 640.409
387.168, 542.209
387.651, 447.201
388.133, 360.396
388.615, 292.355
389.097, 241.409
389.579, 187.507
390.061, 103.542
390.543, 13.301
391.025, 56.800
391.508, 85.447
391.990, 106.439
392.472, 138.987
392.954, 179.820
393.436, 215.592
393.918, 253.540
394.400, 275.344
394.882, 267.095
395.364, 213.536
395.847, 157.461
396.329, 108.678
396.811, 63.411
397.293, 14.839
397.775, 43.660
398.257, 100.881
398.739, 149.449
399.221, 184.077
399.703, 234.104
400.186, 299.857
400.668, 380.483
401.150, 477.368
401.632, 610.743
402.114, 726.840
402.596, 808.647
403.078, 862.295
403.560, 938.331
404.043, 1049.130
404.525, 1161.192
405.007, 1250.299
405.489, 1309.101
405.971, 1383.808
406.453, 1483.001
406.935, 1594.621
407.417, 1695.783
407.900, 1785.126
408.382, 1869.564
408.864, 1953.912
409.346, 2037.259
409.828, 2106.688
410.310, 2160.180
410.792, 2211.673
411.274, 2276.612
411.756, 2353.503
412.238, 2438.310
412.721, 2530.415
413.203, 2629.046
413.685, 2734.981
414.167, 2847.833
414.649, 2966.683
415.131, 3096.817
415.613, 3232.017
416.095, 3361.814
416.578, 3484.312
417.060, 3602.245
417.542, 3719.110
418.024, 3833.795
418.506, 3944.905
418.988, 4044.902
419.470, 4145.917
419.952, 4259.866
420.435, 4394.116
420.917, 4509.168
421.399, 4577.300
421.881, 4625.551
422.363, 4684.475
422.845, 4789.271
423.327, 4875.866
423.809, 4925.728
424.291, 4939.848
424.774, 4947.411
425.256, 4946.872
425.738, 4942.839
426.220, 4939.578
426.702, 4955.822
427.184, 4938.945
427.666, 4876.855
428.148, 4784.762
428.630, 4698.566
429.113, 4625.629
429.595, 4540.998
430.077, 4432.520
430.559, 4299.965
431.041, 4169.793
431.523, 4042.698
432.005, 3911.940
432.487, 3765.957
432.970, 3604.776
433.452, 3446.885
433.934, 3295.892
434.416, 3152.298
434.898, 3013.462
435.380, 2878.296
435.862, 2749.818
436.344, 2636.780
436.827, 2531.233
437.309, 2414.898
437.791, 2283.485
438.273, 2145.852
438.755, 1998.730
439.237, 1850.354
439.719, 1719.853
440.201, 1629.140
440.683, 1551.158
441.165, 1459.496
441.648, 1352.552
442.130, 1261.482
442.612, 1205.037
443.094, 1170.210
443.576, 1145.622
444.058, 1133.494
444.540, 1125.344
445.022, 1111.136
445.505, 1097.142
445.987, 1107.074
446.469, 1153.861
446.951, 1216.839
447.433, 1290.241
447.915, 1376.972
448.397, 1460.274
448.879, 1526.760
449.362, 1596.982
449.844, 1696.203
450.326, 1835.299
450.808, 1975.024
451.290, 2099.647
451.772, 2215.376
452.254, 2375.738
452.736, 2589.110
453.218, 2820.715
453.701, 3059.294
454.183, 3300.653
454.665, 3487.465
455.147, 3597.847
455.629, 3678.943
456.111, 3815.834
456.593, 4000.850
457.075, 4185.242
457.557, 4341.801
458.040, 4478.113
458.522, 4610.473
459.004, 4740.139
459.486, 4857.796
459.968, 4960.953
460.450, 5045.910
460.932, 5105.442
461.414, 5134.140
461.897, 5140.960
462.379, 5136.469
462.861, 5116.451
463.343, 5068.684
463.825, 4967.786
464.307, 4849.680
464.789, 4738.338
465.271, 4646.915
465.754, 4528.051
466.236, 4350.941
466.718, 4150.517
467.200, 3962.166
467.682, 3792.810
468.164, 3631.766
468.646, 3478.334
469.128, 3331.234
469.610, 3191.087
470.093, 3055.739
470.575, 2932.931
471.057, 2829.484
471.539, 2749.287
472.021, 2667.787
472.503, 2579.266
472.985, 2495.214
473.467, 2436.359
473.949, 2403.873
474.432, 2373.093
474.914, 2329.760
475.396, 2283.574
475.878, 2271.685
476.360, 2294.043
476.842, 2312.516
477.324, 2281.315
477.806, 2226.641
478.289, 2200.420
478.771, 2217.486
479.253, 2253.125
479.735, 2295.277
480.217, 2339.245
480.699, 2374.213
481.181, 2378.977
481.663, 2386.030
482.146, 2424.687
482.628, 2496.846
483.110, 2549.336
483.592, 2542.677
484.074, 2519.949
484.556, 2514.530
485.038, 2540.380
485.520, 2572.170
486.002, 2612.499
486.484, 2656.396
486.967, 2692.891
487.449, 2722.253
487.931, 2742.922
488.413, 2750.778
488.895, 2743.122
489.377, 2750.210
489.859, 2777.366
490.341, 2810.058
490.824, 2836.913
491.306, 2858.585
491.788, 2867.071
492.270, 2859.993
492.752, 2840.971
493.234, 2813.112
493.716, 2778.103
494.198, 2746.249
494.681, 2731.863
495.163, 2722.679
495.645, 2699.579
496.127, 2661.641
496.609, 2602.386
497.091, 2507.846
497.573, 2392.636
498.055, 2273.830
498.537, 2156.248
499.020, 2034.878
499.502, 1899.995
499.984, 1759.277
500.466, 1628.167
500.948, 1522.769
501.430, 1422.333
501.912, 1313.769
502.394, 1192.570
502.876, 1078.745
503.359, 980.683
503.841, 885.507
504.323, 779.293
504.805, 642.023
505.287, 528.208
505.769, 450.497
506.251, 399.549
506.733, 340.404
507.216, 269.886
507.698, 199.062
508.180, 131.196
508.662, 66.231
509.144, 10.078
509.626, 38.230
510.108, 73.674
510.590, 79.029
511.073, 63.552
511.555, 62.439
512.037, 94.101
512.519, 134.169
513.001, 146.203
513.483, 138.238
513.965, 140.003
514.447, 188.066
514.929, 239.998
515.412, 257.662
515.894, 232.201
516.376, 206.310
516.858, 200.641
517.340, 201.896
517.822, 196.986
518.304, 183.503
518.786, 163.864
519.268, 132.291
519.751, 93.999
520.233, 67.678
520.715, 66.470
521.197, 58.573
521.679, 31.192
522.161, 17.836
522.643, 70.544
523.125, 128.960
523.607, 187.203
524.090, 241.200
524.572, 290.743
525.054, 327.135
525.536, 341.062
526.018, 353.268
526.500, 409.789
526.982, 503.485
527.464, 593.760
527.947, 655.174
528.429, 700.305
528.911, 743.140
529.393, 784.050
529.875, 827.492
530.357, 882.673
530.839, 938.714
531.321, 983.118
531.804, 1004.044
532.286, 1026.642
532.768, 1062.940
533.250, 1106.457
533.732, 1142.291
534.214, 1176.282
534.696, 1194.168
535.178, 1185.875
535.661, 1149.173
536.143, 1131.902
536.625, 1147.377
537.107, 1162.786
537.589, 1151.658
538.071, 1109.206
538.553, 1071.597
539.035, 1041.863
539.517, 1016.896
540.000, 997.538
540.482, 982.006
540.964, 948.538
541.446, 878.317
541.928, 789.791
542.410, 713.301
542.892, 649.131
543.374, 600.918
543.856, 582.345
544.339, 574.980
544.821, 557.923
545.303, 525.986
545.785, 490.888
546.267, 462.544
546.749, 432.591
547.231, 390.062
547.713, 307.165
548.195, 238.703
548.678, 203.292
549.160, 195.291
549.642, 181.708
550.124, 160.662
550.606, 136.857
551.088, 110.055
551.570, 78.353
552.052, 58.530
552.534, 54.731
553.017, 54.163
553.499, 42.231
553.981, 19.652
554.463, 4.849
554.945, 33.642
555.427, 56.652
555.909, 55.645
556.391, 33.339
556.874, 0.384
557.356, 37.982
557.838, 83.903
558.320, 142.926
558.802, 214.468
559.284, 286.177
559.766, 348.737
560.248, 409.469
560.731, 472.523
561.213, 525.619
561.695, 603.028
562.177, 732.244
562.659, 885.200
563.141, 1011.226
563.623, 1073.829
564.105, 1165.896
564.588, 1310.737
565.070, 1502.259
565.552, 1695.749
566.034, 1889.955
566.516, 2083.432
566.998, 2273.071
567.480, 2456.536
567.962, 2646.078
568.444, 2843.477
568.927, 3049.022
569.409, 3254.203
569.891, 3462.263
570.373, 3680.416
570.855, 3917.546
571.337, 4165.374
571.819, 4424.046
572.301, 4686.961
572.783, 4951.847
573.266, 5216.541
573.748, 5487.829
574.230, 5763.478
574.712, 6044.327
575.194, 6333.783
575.676, 6639.029
576.158, 6946.767
576.640, 7242.768
577.122, 7503.735
577.605, 7806.412
578.087, 8167.423
578.569, 8548.442
579.051, 8898.020
579.533, 9209.600
580.015, 9519.424
580.497, 9835.212
580.979, 10153.029
581.461, 10454.995
581.944, 10741.599
582.426, 11017.645
582.908, 11307.430
583.390, 11582.083
583.872, 11803.863
584.354, 11968.882
584.836, 12097.833
585.318, 12197.758
585.801, 12270.934
586.283, 12321.285
586.765, 12360.928
587.247, 12359.898
587.729, 12337.546
588.211, 12266.461
588.693, 12085.146
589.175, 11719.617
589.657, 11346.148
590.140, 11002.679
590.622, 10684.932
591.104, 10362.496
591.586, 10031.284
592.068, 9702.951
592.550, 9380.167
593.032, 9063.001
593.515, 8771.067
593.997, 8504.538
594.479, 8256.284
594.961, 8038.908
595.443, 7835.048
595.925, 7601.297
596.407, 7296.013
596.889, 7006.087
597.371, 6808.807
597.854, 6677.916
598.336, 6553.760
598.818, 6404.692
599.300, 6266.942
599.782, 6156.379
600.264, 6073.263
600.746, 5998.604
601.228, 5926.272
601.710, 5864.862
602.193, 5819.801
602.675, 5792.855
603.157, 5773.487
603.639, 5760.191
604.121, 5757.183
604.603, 5777.455
605.085, 5819.804
605.567, 5842.208
606.049, 5823.592
606.532, 5801.249
607.014, 5851.122
607.496, 5953.035
607.978, 6038.001
608.460, 6067.272
608.942, 6068.477
609.424, 6059.153
609.906, 6039.978
610.388, 6017.982
610.871, 6002.642
611.353, 5980.016
611.835, 5942.945
612.317, 5891.333
612.799, 5822.489
613.281, 5728.661
613.763, 5624.212
614.245, 5523.066
614.728, 5424.771
615.210, 5342.629
615.692, 5285.234
616.174, 5238.139
616.656, 5162.811
617.138, 5061.029
617.620, 4974.260
618.102, 4927.056
618.584, 4902.438
619.067, 4868.637
619.549, 4828.806
620.031, 4800.469
620.513, 4809.593
620.995, 4822.032
621.477, 4802.776
621.959, 4740.977
622.442, 4690.965
622.924, 4692.698
623.406, 4701.707
623.888, 4676.821
624.370, 4574.669
624.852, 4499.027
625.334, 4466.647
625.816, 4455.942
626.298, 4421.344
626.781, 4353.239
627.263, 4297.646
627.745, 4277.860
628.227, 4278.537
628.709, 4251.697
629.191, 4196.988
629.673, 4123.481
630.155, 4029.095
630.638, 3924.105
631.120, 3826.361
631.602, 3737.158
632.084, 3639.415
632.566, 3519.049
633.048, 3387.365
633.530, 3251.640
634.012, 3110.678
634.494, 2974.346
634.977, 2852.435
635.459, 2733.284
635.941, 2598.123
636.423, 2432.214
636.905, 2278.815
637.387, 2147.273
637.869, 2033.536
638.351, 1924.067
638.833, 1819.846
639.316, 1718.351
639.798, 1613.708
640.280, 1512.439
640.762, 1432.964
641.244, 1374.320
641.726, 1316.066
642.208, 1241.834
642.690, 1161.145
643.172, 1081.250
643.655, 1001.904
644.137, 929.405
644.619, 861.515
645.101, 803.295
645.583, 759.417
646.065, 757.842
646.547, 732.192
647.029, 662.920
647.511, 577.706
647.994, 532.778
648.476, 537.667
648.958, 542.268
649.440, 533.810
649.922, 514.315
650.404, 488.889
650.886, 457.865
651.369, 423.945
651.851, 379.175
652.333, 337.314
652.815, 323.692
653.297, 338.042
653.779, 346.975
654.261, 329.106
654.743, 299.897
655.225, 270.806
655.708, 243.620
656.190, 216.979
656.672, 185.692
657.154, 157.851
657.636, 141.882
658.118, 143.645
658.600, 140.731
659.082, 129.556
659.565, 113.829
660.047, 102.117
660.529, 94.028
661.011, 82.683
661.493, 62.453
661.975, 39.889
662.457, 27.181
662.939, 22.240
663.421, 15.788
663.904, 4.786
664.386, 23.147
664.868, 21.894
665.350, 0.876
665.832, 11.130
666.314, 13.251
666.796, 41.902
667.278, 57.153
667.760, 55.536
668.243, 49.234
668.725, 34.758
669.207, 21.405
669.689, 23.015
670.171, 39.481
670.653, 46.865
671.135, 38.929
671.617, 26.343
672.099, 25.010
672.582, 31.406
673.064, 36.128
673.546, 31.979
674.028, 27.643
674.510, 30.301
674.992, 37.662
675.474, 42.204
675.956, 33.347
676.439, 29.300
676.921, 41.929
677.403, 70.696
677.885, 79.837
678.367, 59.969
678.849, 38.024
679.331, 31.535
679.813, 40.517
680.295, 41.601
680.778, 33.877
681.260, 25.268
681.742, 24.649
682.224, 28.977
682.706, 33.173
683.188, 38.511
683.670, 36.487
684.153, 11.289
684.635, 21.329
685.117, 40.738
685.599, 23.414
686.081, 13.811
686.563, 28.775
687.045, 55.354
687.527, 66.475
688.009, 54.592
688.492, 45.955
688.974, 48.281
689.456, 58.878
689.938, 70.174
690.420, 82.187
690.902, 88.005
691.384, 75.866
691.866, 58.178
692.348, 56.217
692.831, 69.386
693.313, 85.123
693.795, 101.159
694.277, 112.961
694.759, 115.274
695.241, 103.878
695.723, 97.435
696.205, 101.627
696.688, 109.059
697.170, 114.309
697.652, 113.749
698.134, 122.965
698.616, 147.717
699.098, 174.420
699.580, 181.689
700.062, 172.243
700.544, 161.286
701.027, 150.899
701.509, 144.557
701.991, 147.834
702.473, 158.702
702.955, 171.642
703.437, 189.707
703.919, 205.523
704.401, 216.134
704.883, 221.788
705.366, 223.804
705.848, 219.615
706.330, 215.055
706.812, 212.621
707.294, 212.239
707.776, 205.436
708.258, 189.934
708.740, 182.564
709.222, 203.405
709.705, 241.076
710.187, 259.854
710.669, 258.672
711.151, 250.654
711.633, 238.834
712.115, 228.953
712.597, 225.900
713.080, 229.981
713.562, 243.022
714.044, 279.508
714.526, 316.618
715.008, 333.035
715.490, 315.757
715.972, 307.168
716.454, 310.671
716.936, 321.041
717.419, 333.292
717.901, 347.063
718.383, 352.186
718.865, 342.630
719.347, 329.979
719.829, 334.225
720.311, 348.032
720.793, 353.405
721.276, 331.058
721.758, 308.589
722.240, 300.444
722.722, 304.830
723.204, 311.284
723.686, 324.459
724.168, 327.946
724.650, 312.391
725.132, 281.723
725.615, 266.031
726.097, 266.327
726.579, 278.541
727.061, 313.045
727.543, 355.291
728.025, 357.703
728.507, 321.511
728.989, 281.824
729.471, 258.768
729.954, 246.918
730.436, 244.329
730.918, 253.301
731.400, 257.350
731.882, 245.805
732.364, 231.399
732.846, 224.408
733.328, 234.059
733.810, 227.813
734.293, 198.782
734.775, 164.911
735.257, 150.398
735.739, 153.682
736.221, 151.380
736.703, 137.232
737.185, 121.906
737.667, 118.066
738.149, 121.907
738.632, 126.848
739.114, 134.877
739.596, 137.616
740.078, 129.786
740.560, 114.583
741.042, 98.064
741.524, 76.667
742.006, 64.443
742.489, 67.419
742.971, 78.087
743.453, 74.374
743.935, 55.343
744.417, 43.907
744.899, 53.364
745.381, 72.720
745.863, 85.885
746.346, 92.724
746.828, 92.966
747.310, 83.099
747.792, 69.314
748.274, 52.469
748.756, 33.123
749.238, 21.166
749.720, 21.272
750.203, 24.867
750.685, 31.073
751.167, 40.248
751.649, 36.083
752.131, 15.853
752.613, 2.978
753.095, 0.051
753.577, 13.638
754.059, 2.828
754.542, 35.403
755.024, 61.243
755.506, 28.755
755.988, 19.986
756.470, 44.919
756.952, 30.556
757.434, 20.041
757.916, 30.524
758.398, 39.090
758.881, 23.146
759.363, 30.697
759.845, 51.229
760.327, 26.986
760.809, 10.492
761.291, 24.560
761.773, 19.305
762.255, 5.778
762.737, 17.817
763.220, 35.363
763.702, 22.069
764.184, 3.096
764.666, 13.532
765.148, 19.674
765.630, 41.788
766.112, 34.590
766.594, 14.187
767.076, 5.916
767.559, 13.815
768.041, 20.715
768.523, 23.254
769.005, 22.884
769.487, 22.052
769.969, 20.827
770.451, 19.295
770.933, 19.650
771.416, 17.583
771.898, 4.899
772.380, 13.491
772.862, 24.621
773.344, 17.939
773.826, 10.112
774.308, 6.330
774.790, 5.684
775.273, 3.362
775.755, 2.157
776.237, 3.634
776.719, 3.681
777.201, 16.329
777.683, 23.985
778.165, 26.899
778.647, 26.603
779.130, 19.364
779.612, 12.736
780.094, 14.479
780.576, 23.996
781.058, 34.066
781.540, 43.146
782.022, 51.550
782.504, 60.463
782.986, 69.923
783.469, 71.611
783.951, 62.295
784.433, 56.339
784.915, 67.007
785.397, 88.646
785.879, 98.608
786.361, 96.895
786.843, 93.617
787.325, 97.444
787.808, 102.421
788.290, 101.417
788.772, 92.593
789.254, 89.731
789.736, 104.483
790.218, 118.901
790.700, 122.002
791.182, 110.731
791.664, 105.616
792.147, 106.631
792.629, 113.533
793.111, 130.474
793.593, 152.912
794.075, 166.388
794.557, 169.051
795.039, 169.139
795.521, 172.356
796.003, 176.054
796.486, 176.847
796.968, 170.977
797.450, 172.014
797.932, 188.779
798.414, 205.897
798.896, 208.130
799.378, 191.725
799.860, 191.396
800.343, 212.123
800.825, 236.108
801.307, 243.282
801.789, 238.879
802.271, 234.080
802.753, 231.099
803.235, 227.750
803.717, 219.297
804.200, 211.389
804.682, 209.619
805.164, 216.977
805.646, 228.381
806.128, 247.806
806.610, 266.612
807.092, 273.326
807.574, 267.873
808.057, 267.962
808.539, 277.307
809.021, 287.331
809.503, 284.037
809.985, 275.221
810.467, 275.043
810.949, 292.654
811.431, 308.189
811.913, 308.484
812.396, 303.252
812.878, 306.353
813.360, 326.242
813.842, 343.261
814.324, 355.790
814.806, 363.723
815.288, 365.233
815.770, 361.563
816.252, 360.278
816.735, 362.655
817.217, 367.964
817.699, 380.730
818.181, 396.603
818.663, 407.158
819.145, 406.527
819.627, 403.628
820.109, 395.864
820.591, 388.674
821.074, 390.866
821.556, 406.883
822.038, 416.821
822.520, 415.608
823.002, 410.927
823.484, 416.780
823.966, 430.038
824.448, 439.096
824.931, 438.149
825.413, 435.743
825.895, 435.342
826.377, 437.978
826.859, 445.114
827.341, 469.109
827.823, 479.602
828.305, 466.804
828.787, 447.169
829.270, 448.600
829.752, 471.247
830.234, 486.389
830.716, 486.572
831.198, 481.762
831.680, 482.480
832.162, 487.789
832.644, 496.557
833.127, 514.878
833.609, 526.592
834.091, 521.639
834.573, 508.766
835.055, 500.437
835.537, 497.179
836.019, 497.369
836.501, 502.652
836.984, 508.162
837.466, 503.317
837.948, 491.525
838.430, 486.920
838.912, 493.348
839.394, 506.622
839.876, 530.110
840.358, 555.974
840.841, 574.082
841.323, 573.829
841.805, 576.519
842.287, 583.706
842.769, 594.287
843.251, 608.001
843.733, 625.201
844.215, 641.151
844.697, 657.325
845.180, 664.978
845.662, 643.313
846.144, 607.552
846.626, 585.834
847.108, 591.354
847.590, 598.418
848.072, 593.961
848.554, 586.799
849.036, 587.146
849.519, 600.124
850.001, 607.368
850.483, 607.110
850.965, 603.447
851.447, 599.985
851.929, 596.977
852.411, 596.105
852.893, 598.162
853.375, 600.522
853.858, 605.259
854.340, 607.015
854.822, 599.075
855.304, 571.754
855.786, 553.617
856.268, 546.654
856.750, 548.912
857.232, 561.569
857.714, 584.771
858.197, 598.083
858.679, 599.167
859.161, 597.983
859.643, 601.344
860.125, 608.316
860.607, 621.797
861.089, 646.168
861.571, 659.736
862.054, 641.736
862.536, 619.090
863.018, 610.691
863.500, 617.131
863.982, 629.129
864.464, 649.431
864.946, 667.586
865.428, 671.176
865.911, 667.332
866.393, 673.940
866.875, 692.124
867.357, 710.140
867.839, 723.592
868.321, 730.638
868.803, 727.289
869.285, 709.906
869.768, 705.062
870.250, 719.183
870.732, 735.556
871.214, 741.054
871.696, 737.605
872.178, 748.553
872.660, 774.787
873.142, 801.285
873.624, 816.763
874.107, 826.052
874.589, 831.465
875.071, 834.179
875.553, 841.402
876.035, 857.125
876.517, 874.767
876.999, 892.914
877.481, 910.336
877.963, 922.199
878.446, 928.469
878.928, 933.041
879.410, 936.307
879.892, 939.683
880.374, 946.995
880.856, 955.297
881.338, 958.133
881.820, 953.277
882.302, 945.443
882.785, 932.205
883.267, 914.393
883.749, 901.347
884.231, 894.266
884.713, 892.823
885.195, 900.342
885.677, 908.631
886.159, 897.772
886.641, 874.836
887.124, 859.034
887.606, 867.167
888.088, 874.392
888.570, 867.119
889.052, 852.247
889.534, 844.016
890.016, 847.466
890.498, 844.742
890.981, 831.699
891.463, 814.907
891.945, 803.666
892.427, 797.612
892.909, 797.032
893.391, 805.046
893.873, 808.841
894.355, 795.608
894.838, 774.702
895.320, 756.548
895.802, 741.983
896.284, 732.181
896.766, 729.741
897.248, 727.907
897.730, 720.039
898.212, 706.681
898.695, 690.805
899.177, 672.396
899.659, 656.328
900.141, 648.593
900.623, 644.288
901.105, 640.524
901.587, 638.737
902.069, 626.627
902.551, 594.870
903.034, 564.330
903.516, 549.720
903.998, 550.010
904.480, 536.781
904.962, 509.999
905.444, 482.655
905.926, 462.705
906.408, 447.548
906.890, 436.997
907.373, 429.929
907.855, 417.921
908.337, 390.332
908.819, 366.634
909.301, 353.832
909.783, 349.687
910.265, 343.026
910.747, 333.801
911.229, 324.722
911.712, 319.238
912.194, 312.064
912.676, 296.237
913.158, 273.323
913.640, 247.261
914.122, 212.049
914.604, 183.005
915.086, 166.272
915.568, 156.278
916.051, 141.666
916.533, 121.273
917.015, 111.304
917.497, 118.549
917.979, 126.894
918.461, 113.667
918.943, 87.499
919.425, 62.132
919.908, 37.695
920.390, 22.417
920.872, 27.273
921.354, 36.564
921.836, 37.995
922.318, 31.362
922.800, 16.304
923.282, 8.545
923.765, 35.029
924.247, 58.562
924.729, 77.491
925.211, 87.771
925.693, 88.979
926.175, 89.114
926.657, 89.079
927.139, 91.661
927.622, 100.357
928.104, 114.799
928.586, 115.890
929.068, 101.066
929.550, 92.284
930.032, 107.186
930.514, 133.461
930.996, 149.376
931.478, 157.253
931.961, 165.612
932.443, 180.013
932.925, 193.765
933.407, 206.356
933.889, 216.000
934.371, 217.888
934.853, 210.576
935.335, 203.325
935.817, 198.854
936.300, 194.048
936.782, 185.578
937.264, 172.650
937.746, 151.510
938.228, 113.055
938.710, 82.299
939.192, 81.561
939.674, 82.421
940.156, 54.965
940.639, 7.995
941.121, 63.222
941.603, 107.870
942.085, 148.701
942.567, 189.283
943.049, 231.918
943.531, 279.722
944.013, 333.668
944.495, 392.253
944.978, 458.823
945.460, 526.733
945.942, 587.967
946.424, 644.435
946.906, 724.124
947.388, 829.957
947.870, 927.639
948.352, 993.662
948.835, 1042.856
949.317, 1093.687
949.799, 1145.378
950.281, 1194.224
950.763, 1235.851
951.245, 1278.590
951.727, 1330.335
952.209, 1381.640
952.692, 1409.204
953.174, 1411.458
953.656, 1418.339
954.138, 1438.811
954.620, 1459.357
955.102, 1464.806
955.584, 1459.414
956.066, 1449.483
956.549, 1437.491
957.031, 1418.469
957.513, 1385.905
957.995, 1353.115
958.477, 1334.490
958.959, 1330.646
959.441, 1303.010
959.923, 1249.206
960.405, 1201.061
960.888, 1188.599
961.370, 1191.603
961.852, 1191.649
962.334, 1187.272
962.816, 1179.324
963.298, 1156.417
963.780, 1146.459
964.262, 1162.318
964.744, 1195.987
965.227, 1221.758
965.709, 1239.901
966.191, 1250.865
966.673, 1251.548
967.155, 1250.875
967.637, 1250.637
968.119, 1255.722
968.601, 1277.335
969.083, 1331.075
969.566, 1376.080
970.048, 1406.726
970.530, 1431.968
971.012, 1462.358
971.494, 1496.900
971.976, 1526.538
972.458, 1550.944
972.940, 1574.455
973.422, 1602.753
973.905, 1629.793
974.387, 1648.257
974.869, 1656.578
975.351, 1673.306
975.833, 1701.491
976.315, 1725.241
976.797, 1730.694
977.279, 1727.676
977.762, 1744.750
978.244, 1777.662
978.726, 1811.015
979.208, 1822.400
979.690, 1845.618
980.172, 1901.013
980.654, 1975.982
981.136, 2043.252
981.619, 2100.971
982.101, 2155.883
982.583, 2204.491
983.065, 2267.984
983.547, 2386.941
984.029, 2536.750
984.511, 2677.839
984.993, 2803.277
985.476, 2920.712
985.958, 3025.249
986.440, 3130.295
986.922, 3243.087
987.404, 3364.135
987.886, 3488.370
988.368, 3616.236
988.850, 3727.360
989.333, 3811.738
989.815, 3872.415
990.297, 3907.763
990.779, 3920.292
991.261, 3918.425
991.743, 3910.684
992.225, 3879.035
992.707, 3818.278
993.189, 3734.266
993.672, 3622.693
994.154, 3493.991
994.636, 3404.095
995.118, 3380.231
995.600, 3362.536
996.082, 3313.702
996.564, 3245.089
997.046, 3166.472
997.528, 3077.320
998.011, 2986.016
998.493, 2896.568
998.975, 2797.138
999.457, 2671.298
999.939, 2531.361
1000.421, 2402.718
1000.903, 2285.161
1001.385, 2177.661
1001.867, 2084.710
1002.350, 1993.650
1002.832, 1886.213
1003.314, 1777.680
1003.796, 1716.382
1004.278, 1706.051
1004.760, 1704.918
1005.242, 1700.625
1005.724, 1703.636
1006.207, 1737.116
1006.689, 1783.214
1007.171, 1810.267
1007.653, 1786.917
1008.135, 1803.338
1008.617, 1891.240
1009.099, 1991.483
1009.581, 2056.999
1010.063, 2091.721
1010.546, 2145.629
1011.028, 2218.155
1011.510, 2283.941
1011.992, 2328.632
1012.474, 2358.756
1012.956, 2365.911
1013.438, 2359.856
1013.920, 2396.686
1014.403, 2499.585
1014.885, 2581.861
1015.367, 2614.936
1015.849, 2629.858
1016.331, 2673.787
1016.813, 2743.577
1017.295, 2832.721
1017.777, 2940.382
1018.259, 3064.616
1018.742, 3201.103
1019.224, 3355.578
1019.706, 3540.406
1020.188, 3760.621
1020.670, 3938.246
1021.152, 4070.559
1021.634, 4213.173
1022.116, 4397.830
1022.599, 4619.697
1023.081, 4882.091
1023.563, 5180.401
1024.045, 5487.372
1024.527, 5802.409
1025.009, 6122.904
1025.491, 6452.343
1025.973, 6781.477
1026.455, 7088.615
1026.938, 7378.685
1027.420, 7676.992
1027.902, 7990.976
1028.384, 8312.915
1028.866, 8668.577
1029.348, 9007.188
1029.830, 9287.490
1030.312, 9506.773
1030.794, 9701.591
1031.277, 9870.738
1031.759, 10005.330
1032.241, 10086.888
1032.723, 10137.544
1033.205, 10203.488
1033.687, 10270.025
1034.169, 10287.389
1034.651, 10218.168
1035.134, 10120.239
1035.616, 10008.613
1036.098, 9873.835
1036.580, 9697.016
1037.062, 9481.753
1037.544, 9245.498
1038.026, 8989.952
1038.508, 8726.668
1038.990, 8462.449
1039.473, 8194.955
1039.955, 7922.920
1040.437, 7642.355
1040.919, 7375.242
1041.401, 7117.578
1041.883, 6879.525
1042.365, 6672.752
1042.847, 6485.479
1043.329, 6304.336
1043.812, 6129.851
1044.294, 5959.647
1044.776, 5771.341
1045.258, 5621.351
1045.740, 5534.888
1046.222, 5475.864
1046.704, 5400.349
1047.186, 5309.521
1047.669, 5240.919
1048.151, 5197.303
1048.633, 5179.137
1049.115, 5195.969
1049.597, 5230.567
1050.079, 5268.790
1050.561, 5310.636
1051.043, 5369.495
1051.526, 5452.196
1052.008, 5530.710
1052.490, 5597.862
1052.972, 5652.324
1053.454, 5693.623
1053.936, 5719.419
1054.418, 5725.222
1054.900, 5713.900
1055.382, 5671.762
1055.865, 5583.754
1056.347, 5473.031
1056.829, 5357.473
1057.311, 5237.237
1057.793, 5082.021
1058.275, 4891.676
1058.757, 4672.251
1059.239, 4408.206
1059.721, 4134.683
1060.204, 3870.445
1060.686, 3621.217
1061.168, 3383.227
1061.650, 3157.022
1062.132, 2943.825
1062.614, 2748.034
1063.096, 2554.019
1063.578, 2339.658
1064.061, 2114.234
1064.543, 1897.560
1065.025, 1691.180
1065.507, 1492.033
1065.989, 1302.707
1066.471, 1113.064
1066.953, 912.819
1067.435, 709.510
1067.917, 535.334
1068.400, 388.562
1068.882, 251.479
1069.364, 104.925
1069.846, 22.621
1070.328, 110.229
1070.810, 170.430
1071.292, 223.605
1071.774, 273.302
1072.257, 304.830
1072.739, 316.475
1073.221, 318.983
1073.703, 318.099
1074.185, 317.111
1074.667, 332.524
1075.149, 359.580
1075.631, 346.632
1076.114, 257.492
1076.596, 163.466
1077.078, 80.366
1077.560, 0.693
1078.042, 100.973
1078.524, 215.115
1079.006, 297.512
1079.488, 322.071
1079.970, 379.278
1080.453, 544.523
1080.935, 740.226
1081.417, 902.619
1081.899, 1030.405
1082.381, 1195.223
1082.863, 1399.610
1083.345, 1619.942
1083.827, 1840.252
1084.309, 2075.289
1084.792, 2342.483
1085.274, 2634.850
1085.756, 2932.938
1086.238, 3231.253
1086.720, 3540.163
1087.202, 3859.517
1087.684, 4195.292
1088.166, 4551.316
1088.649, 4929.249
1089.131, 5338.566
1089.613, 5779.950
1090.095, 6222.490
1090.577, 6665.913
1091.059, 7099.081
1091.541, 7513.472
1092.023, 7919.449
1092.505, 8350.831
1092.988, 8801.699
1093.470, 9238.407
1093.952, 9652.043
1094.434, 10035.500
1094.916, 10392.431
1095.398, 10708.892
1095.880, 10973.871
1096.362, 11191.829
1096.844, 11334.975
1097.327, 11402.024
1097.809, 11418.290
1098.291, 11395.693
1098.773, 11328.566
1099.255, 11204.955
1099.737, 11036.265
1100.219, 10841.237
1100.701, 10624.872
1101.184, 10379.284
1101.666, 10096.032
1102.148, 9796.025
1102.630, 9484.767
1103.112, 9172.358
1103.594, 8896.923
1104.076, 8654.454
1104.558, 8395.807
1105.041, 8063.190
1105.523, 7755.016
1106.005, 7507.782
1106.487, 7299.704
1106.969, 7086.356
1107.451, 6869.652
1107.933, 6677.850
1108.415, 6518.650
1108.897, 6374.357
1109.380, 6240.985
1109.862, 6111.137
1110.344, 5971.968
1110.826, 5824.711
1111.308, 5707.478
1111.790, 5620.081
1112.272, 5533.625
1112.754, 5440.406
1113.236, 5337.602
1113.719, 5202.701
1114.201, 5064.570
1114.683, 4971.203
1115.165, 4956.392
1115.647, 4933.274
1116.129, 4900.192
1116.611, 4863.087
1117.093, 4831.951
1117.576, 4797.591
1118.058, 4737.739
1118.540, 4656.465
1119.022, 4581.300
1119.504, 4524.280
1119.986, 4474.393
1120.468, 4434.506
1120.950, 4394.618
1121.432, 4337.185
1121.915, 4265.980
1122.397, 4197.079
1122.879, 4132.415
1123.361, 4072.875
1123.843, 4021.084
1124.325, 3972.637
1124.807, 3924.018
1125.289, 3875.854
1125.771, 3828.742
1126.254, 3783.148
1126.736, 3753.794
1127.218, 3747.836
1127.700, 3752.251
1128.182, 3759.678
1128.664, 3769.873
1129.146, 3776.990
1129.628, 3774.602
1130.111, 3814.395
1130.593, 3901.292
1131.075, 3989.869
1131.557, 4060.488
1132.039, 4110.363
1132.521, 4120.368
1133.003, 4108.695
1133.485, 4118.448
1133.968, 4182.538
1134.450, 4221.020
1134.932, 4228.431
1135.414, 4209.979
1135.896, 4173.529
1136.378, 4112.733
1136.860, 4009.460
1137.342, 3867.315
1137.824, 3721.757
1138.307, 3597.492
1138.789, 3450.590
1139.271, 3267.499
1139.753, 3070.614
1140.235, 2896.143
1140.717, 2741.403
1141.199, 2594.016
1141.681, 2455.524
1142.163, 2317.483
1142.646, 2172.248
1143.128, 2032.363
1143.610, 1902.451
1144.092, 1784.698
1144.574, 1690.935
1145.056, 1617.570
1145.538, 1536.001
1146.020, 1433.739
1146.503, 1331.055
1146.985, 1233.244
1147.467, 1145.567
1147.949, 1075.285
1148.431, 1022.688
1148.913, 948.956
1149.395, 854.579
1149.877, 760.282
1150.359, 676.771
1150.842, 600.417
1151.324, 532.229
1151.806, 467.720
1152.288, 399.323
1152.770, 323.582
1153.252, 258.114
1153.734, 204.335
1154.216, 153.376
1154.698, 88.142
1155.181, 28.062
1155.663, 2.529
1156.145, 3.142
1156.627, 13.312
1157.109, 59.493
1157.591, 99.170
1158.073, 127.536
1158.555, 146.423
1159.038, 154.498
1159.520, 156.557
1160.002, 158.037
1160.484, 159.831
1160.966, 166.284
1161.448, 182.511
1161.930, 195.063
1162.412, 200.686
1162.895, 200.258
1163.377, 193.855
1163.859, 182.503
1164.341, 168.092
1164.823, 151.406
1165.305, 128.691
1165.787, 92.873
1166.269, 59.418
1166.751, 35.234
1167.234, 18.071
1167.716, 6.202
1168.198, 4.350
1168.680, 27.075
1169.162, 75.910
1169.644, 119.975
1170.126, 144.242
1170.608, 164.788
1171.090, 192.178
1171.573, 225.609
1172.055, 259.872
1172.537, 294.443
1173.019, 327.037
1173.501, 350.853
1173.983, 378.585
1174.465, 410.955
1174.947, 453.660
1175.430, 528.221
1175.912, 632.003
1176.394, 671.123
1176.876, 642.083
1177.358, 582.655
1177.840, 485.393
1178.322, 401.979
1178.804, 364.364
1179.286, 361.795
1179.769, 382.617
1180.251, 428.413
1180.733, 438.628
1181.215, 402.235
1181.697, 364.197
1182.179, 355.042
1182.661, 363.321
1183.143, 390.760
1183.625, 429.475
1184.108, 448.171
1184.590, 446.263
1185.072, 427.560
1185.554, 387.859
1186.036, 354.350
1186.518, 359.689
1187.000, 379.335
1187.482, 390.191
1187.965, 390.646
1188.447, 390.265
1188.929, 388.891
1189.411, 388.384
1189.893, 392.229
1190.375, 390.877
1190.857, 361.916
1191.339, 327.924
1191.822, 321.302
1192.304, 353.004
1192.786, 369.298
1193.268, 368.610
1193.750, 362.225
1194.232, 351.241
1194.714, 343.321
1195.196, 355.228
1195.678, 374.696
1196.161, 379.259
1196.643, 353.007
1197.125, 349.717
1197.607, 374.832
1198.089, 396.470
1198.571, 380.918
1199.053, 356.102
1199.535, 359.554
1200.017, 383.056
1200.500, 404.298
1200.982, 419.521
1201.464, 433.605
1201.946, 447.109
1202.428, 458.304
1202.910, 465.437
1203.392, 469.437
1203.874, 469.859
1204.357, 467.916
1204.839, 468.474
1205.321, 472.876
1205.803, 477.846
1206.285, 482.839
1206.767, 488.698
1207.249, 492.716
1207.731, 500.272
1208.214, 525.767
1208.696, 567.484
1209.178, 588.754
1209.660, 572.388
1210.142, 570.349
1210.624, 597.495
1211.106, 632.311
1211.588, 650.291
1212.070, 654.297
1212.552, 644.036
1213.035, 618.189
1213.517, 597.828
1213.999, 582.114
1214.481, 582.700
1214.963, 607.500
1215.445, 635.973
1215.927, 634.548
1216.409, 615.684
1216.892, 597.072
1217.374, 581.684
1217.856, 571.733
1218.338, 569.681
1218.820, 565.740
1219.302, 555.633
1219.784, 540.846
1220.266, 520.592
1220.749, 499.154
1221.231, 484.383
1221.713, 481.963
1222.195, 473.190
1222.677, 453.598
1223.159, 440.007
1223.641, 445.932
1224.123, 459.412
1224.605, 461.044
1225.088, 453.614
1225.570, 442.591
1226.052, 425.678
1226.534, 413.062
1227.016, 406.051
1227.498, 403.062
1227.980, 402.753
1228.462, 404.789
1228.944, 409.105
1229.427, 415.934
1229.909, 425.688
1230.391, 441.036
1230.873, 454.604
1231.355, 467.052
1231.837, 473.126
1232.319, 465.729
1232.801, 451.679
1233.284, 432.301
1233.766, 415.020
1234.248, 419.616
1234.730, 461.063
1235.212, 493.678
1235.694, 515.428
1236.176, 524.397
1236.658, 508.802
1237.141, 486.341
1237.623, 478.412
1238.105, 482.892
1238.587, 489.397
1239.069, 498.629
1239.551, 500.572
1240.033, 493.415
1240.515, 485.910
1240.997, 492.783
1241.480, 499.093
1241.962, 479.007
1242.444, 441.518
1242.926, 436.138
1243.408, 472.717
1243.890, 501.910
1244.372, 514.625
1244.854, 519.257
1245.337, 523.635
1245.819, 525.066
1246.301, 515.758
1246.783, 499.433
1247.265, 490.634
1247.747, 487.668
1248.229, 484.754
1248.711, 483.435
1249.193, 475.900
1249.676, 456.588
1250.158, 432.962
1250.640, 413.894
1251.122, 402.105
1251.604, 399.998
1252.086, 407.787
1252.568, 413.364
1253.050, 415.151
1253.532, 406.364
1254.015, 362.726
1254.497, 322.908
1254.979, 328.194
1255.461, 364.545
1255.943, 366.709
1256.425, 338.684
1256.907, 314.240
1257.389, 300.517
1257.872, 295.054
1258.354, 252.926
1258.836, 248.970
1259.318, 255.630
1259.800, 259.980
1260.282, 262.429
1260.764, 255.087
1261.246, 260.793
1261.729, 263.195
1262.211, 266.437
1262.693, 242.273
1263.175, 213.999
1263.657, 190.117
1264.139, 173.237
1264.621, 182.459
1265.103, 209.405
1265.585, 222.497
1266.068, 206.730
1266.550, 192.689
1267.032, 189.814
1267.514, 191.320
1267.996, 195.748
1268.478, 203.342
1268.960, 217.283
1269.442, 231.075
1269.924, 228.705
1270.407, 196.247
1270.889, 169.871
1271.371, 152.234
1271.853, 145.386
1272.335, 155.764
1272.817, 175.287
1273.299, 190.131
1273.781, 197.205
1274.264, 188.618
1274.746, 147.059
1275.228, 129.473
1275.710, 145.640
1276.192, 160.028
1276.674, 150.397
1277.156, 128.762
1277.638, 106.495
1278.120, 87.382
1278.603, 80.218
1279.085, 91.280
1279.567, 97.961
1280.049, 100.045
1280.531, 96.903
1281.013, 80.691
1281.495, 65.849
1281.977, 72.577
1282.459, 87.783
1282.942, 91.579
1283.424, 82.863
1283.906, 72.600
1284.388, 60.802
1284.870, 52.387
1285.352, 49.615
1285.834, 52.082
1286.316, 69.325
1286.799, 84.755
1287.281, 77.261
1287.763, 45.802
1288.245, 25.667
1288.727, 16.312
1289.209, 11.689
1289.691, 15.145
1290.173, 14.054
1290.656, 5.322
1291.138, 23.003
1291.620, 17.858
1292.102, 5.467
1292.584, 18.418
1293.066, 21.993
1293.548, 21.604
1294.030, 12.875
1294.512, 12.183
1294.995, 26.440
1295.477, 39.218
1295.959, 30.128
1296.441, 0.207
1296.923, 3.387
1297.405, 5.079
1297.887, 12.533
1298.369, 18.312
1298.851, 25.296
1299.334, 26.072
1299.816, 21.538
1300.298, 8.436
1300.780, 0.000
##END=



