##NAMES=Dravite
##RRUFFID=R060280
##IDEAL CHEMISTRY=NaMg_3_Al_6_(Si_6_O_18_)(BO_3_)_3_(OH)_3_OH
##LOCALITY=near Merelani, Tanzania
##OWNER=RRUFF
##SOURCE=Herb Obodda
##DESCRIPTION=Green fragment
##STATUS=The identification of this mineral has been confirmed by X-ray diffraction and chemical analysis
##URL=rruff.info/R060280
##MEASURED CHEMISTRY=(Na_0.45_Ca_0.40_[box]_0.15_)(Mg_0.89_Al_0.07_Ti_0.04_)_3_Al_6_(BO_3_)_3_(Si_0.93_B_0.07_)_6_O_18_((OH)_0.95_O_0.05_)_4_
182.9279, 0.0000000E+00
183.4100, 42.66211
183.8921, 0.4394530
184.3742, 5.056641
184.8564, 18.84570
185.3385, 33.54883
185.8206, 38.24023
186.3027, 37.98438
186.7848, 37.58789
187.2669, 36.57227
187.7491, 34.47852
188.2312, 23.33203
188.7133, 10.16211
189.1954, 30.79492
189.6775, 91.67383
190.1596, 155.2441
190.6418, 164.7812
191.1239, 121.7441
191.6060, 95.36328
192.0881, 129.6309
192.5702, 214.5117
193.0523, 258.3828
193.5345, 253.9844
194.0166, 227.0742
194.4987, 212.0742
194.9808, 209.0566
195.4629, 216.5664
195.9450, 236.2168
196.4272, 268.2617
196.9093, 300.2578
197.3914, 331.8730
197.8735, 363.3145
198.3556, 395.5469
198.8377, 428.7012
199.3199, 460.5918
199.8020, 488.9219
200.2841, 512.9277
200.7662, 539.9629
201.2483, 573.4180
201.7304, 607.3887
202.2126, 618.2852
202.6947, 594.8027
203.1768, 590.5020
203.6589, 650.7617
204.1410, 787.7949
204.6231, 897.8672
205.1053, 970.5039
205.5874, 1010.918
206.0695, 1026.426
206.5516, 1001.826
207.0337, 992.2227
207.5158, 1048.521
207.9980, 1189.824
208.4801, 1297.244
208.9622, 1345.693
209.4443, 1349.320
209.9264, 1379.959
210.4085, 1447.771
210.8907, 1522.650
211.3728, 1581.623
211.8549, 1623.955
212.3370, 1653.572
212.8191, 1665.348
213.3012, 1662.820
213.7834, 1679.656
214.2655, 1722.729
214.7476, 1774.428
215.2297, 1824.152
215.7118, 1882.646
216.1939, 1909.908
216.6761, 1891.834
217.1582, 1830.789
217.6403, 1775.871
218.1224, 1727.559
218.6045, 1684.873
219.0867, 1649.846
219.5688, 1631.084
220.0509, 1599.553
220.5330, 1546.697
221.0151, 1471.533
221.4972, 1399.463
221.9794, 1328.158
222.4615, 1261.990
222.9436, 1206.975
223.4257, 1171.857
223.9078, 1128.938
224.3899, 1068.305
224.8721, 986.7676
225.3542, 921.1426
225.8363, 873.0918
226.3184, 838.8496
226.8005, 812.0098
227.2826, 785.5352
227.7648, 781.5488
228.2469, 817.3027
228.7290, 903.5801
229.2111, 941.5312
229.6932, 906.9922
230.1753, 843.1191
230.6575, 804.4570
231.1396, 795.1133
231.6217, 804.6855
232.1038, 834.8281
232.5859, 891.0781
233.0680, 939.3359
233.5502, 983.8652
234.0323, 1017.248
234.5144, 1024.061
234.9965, 975.9004
235.4786, 949.6445
235.9607, 977.9609
236.4429, 1079.861
236.9250, 1142.611
237.4071, 1143.744
237.8892, 1120.045
238.3713, 1133.744
238.8534, 1199.301
239.3356, 1259.027
239.8177, 1294.436
240.2998, 1302.227
240.7819, 1295.996
241.2640, 1273.691
241.7461, 1242.482
242.2283, 1214.375
242.7104, 1186.584
243.1925, 1165.922
243.6746, 1158.727
244.1567, 1175.537
244.6388, 1168.918
245.1210, 1132.324
245.6031, 1076.344
246.0852, 1018.779
246.5673, 958.8145
247.0494, 899.3691
247.5315, 840.1543
248.0137, 776.8828
248.4958, 725.7363
248.9779, 695.0859
249.4600, 674.5625
249.9421, 641.9258
250.4242, 585.8867
250.9064, 535.8613
251.3885, 506.9160
251.8706, 513.2852
252.3527, 478.5156
252.8348, 375.3965
253.3169, 248.6484
253.7991, 190.6465
254.2812, 235.9121
254.7633, 287.0840
255.2454, 310.8125
255.7275, 305.6309
256.2097, 277.9414
256.6918, 214.6602
257.1739, 135.1562
257.6560, 72.66016
258.1381, 19.85156
258.6202, 0.8417970
259.1024, 37.20898
259.5845, 152.6113
260.0666, 221.1621
260.5487, 229.3926
261.0308, 200.7168
261.5129, 175.2461
261.9951, 149.3848
262.4772, 135.5977
262.9593, 142.1543
263.4414, 175.1992
263.9235, 199.2754
264.4056, 211.1602
264.8878, 217.5039
265.3699, 230.0195
265.8520, 249.3594
266.3341, 273.8516
266.8162, 308.4023
267.2983, 357.7461
267.7805, 381.8418
268.2626, 372.5215
268.7447, 346.5703
269.2268, 329.7207
269.7089, 320.4980
270.1910, 325.7539
270.6732, 353.3340
271.1553, 406.3574
271.6374, 450.0391
272.1195, 484.4414
272.6016, 509.4551
273.0837, 521.3438
273.5659, 518.1113
274.0480, 512.5820
274.5301, 507.5156
275.0122, 502.6016
275.4943, 510.3906
275.9764, 537.3281
276.4586, 564.8066
276.9407, 561.6172
277.4228, 524.4746
277.9049, 484.5879
278.3870, 454.2480
278.8691, 432.9473
279.3513, 407.3027
279.8334, 374.9238
280.3155, 344.3652
280.7976, 328.9785
281.2797, 329.3320
281.7618, 332.2656
282.2440, 343.9609
282.7261, 358.6133
283.2082, 321.4570
283.6903, 221.9219
284.1724, 109.5059
284.6545, 42.13281
285.1367, 19.33789
285.6188, 18.53320
286.1009, 44.20898
286.5830, 86.67578
287.0651, 98.29297
287.5472, 74.32812
288.0294, 46.28906
288.5115, 58.95508
288.9936, 105.8574
289.4757, 131.9922
289.9578, 105.7539
290.4399, 49.00195
290.9221, 27.06250
291.4042, 42.46289
291.8863, 61.12305
292.3684, 38.88672
292.8505, 12.93750
293.3326, 45.24609
293.8148, 38.30859
294.2969, 5.039063
294.7790, 41.86719
295.2611, 102.6367
295.7432, 144.6484
296.2253, 122.2422
296.7075, 57.00391
297.1896, 10.21680
297.6717, 3.789063
298.1538, 20.34180
298.6359, 37.89648
299.1180, 56.48242
299.6002, 73.29883
300.0823, 88.39648
300.5644, 100.2363
301.0465, 106.0742
301.5286, 104.4551
302.0107, 97.50000
302.4929, 87.35938
302.9750, 73.90039
303.4571, 56.05273
303.9392, 27.55859
304.4213, 4.093750
304.9034, 27.85547
305.3856, 35.31055
305.8677, 43.19141
306.3498, 70.49219
306.8319, 111.8438
307.3140, 148.6113
307.7961, 178.3711
308.2783, 193.9648
308.7604, 185.6914
309.2425, 144.3984
309.7246, 95.56445
310.2067, 46.67969
310.6888, 1.656250
311.1710, 30.18555
311.6531, 40.54297
312.1352, 38.42383
312.6173, 26.79297
313.0994, 0.2851560
313.5815, 18.52344
314.0637, 12.80273
314.5458, 7.640625
315.0279, 24.47266
315.5100, 28.65039
315.9921, 28.86328
316.4742, 28.48047
316.9564, 26.80469
317.4385, 29.10352
317.9206, 32.23828
318.4027, 41.45898
318.8848, 64.07422
319.3669, 116.7129
319.8491, 170.1777
320.3312, 208.3516
320.8133, 224.7168
321.2954, 260.2480
321.7776, 358.7051
322.2597, 466.8691
322.7418, 527.9980
323.2239, 464.4688
323.7060, 422.5371
324.1881, 447.3027
324.6703, 546.5723
325.1524, 628.9062
325.6345, 678.7461
326.1166, 713.2031
326.5987, 746.5039
327.0808, 772.7324
327.5630, 804.7363
328.0451, 842.8145
328.5272, 887.1074
329.0093, 942.5078
329.4914, 1017.352
329.9735, 1094.084
330.4557, 1161.271
330.9378, 1218.105
331.4199, 1266.316
331.9020, 1301.553
332.3841, 1327.773
332.8662, 1366.863
333.3484, 1430.764
333.8305, 1488.625
334.3126, 1519.789
334.7947, 1509.141
335.2768, 1517.738
335.7589, 1552.621
336.2411, 1606.133
336.7232, 1663.078
337.2053, 1726.031
337.6874, 1783.402
338.1695, 1831.082
338.6516, 1868.574
339.1338, 1898.816
339.6159, 1926.115
340.0980, 1938.750
340.5801, 1901.643
341.0622, 1806.615
341.5443, 1735.891
342.0265, 1743.465
342.5086, 1816.375
342.9907, 1822.594
343.4728, 1748.844
343.9549, 1659.906
344.4370, 1644.385
344.9192, 1694.506
345.4013, 1736.814
345.8834, 1743.246
346.3655, 1723.576
346.8476, 1698.074
347.3297, 1666.488
347.8119, 1637.473
348.2940, 1614.461
348.7761, 1600.066
349.2582, 1602.584
349.7403, 1628.438
350.2224, 1668.295
350.7046, 1711.676
351.1867, 1757.574
351.6688, 1802.340
352.1509, 1844.225
352.6330, 1882.482
353.1151, 1914.977
353.5973, 1935.219
354.0794, 1961.287
354.5615, 2005.857
355.0436, 2068.781
355.5257, 2149.543
356.0078, 2274.197
356.4900, 2402.547
356.9721, 2490.500
357.4542, 2514.080
357.9363, 2555.688
358.4184, 2680.047
358.9005, 2851.773
359.3827, 3009.689
359.8648, 3129.236
360.3469, 3229.389
360.8290, 3308.020
361.3111, 3358.604
361.7932, 3439.264
362.2754, 3596.436
362.7575, 3782.260
363.2396, 3946.850
363.7217, 4058.824
364.2038, 4162.803
364.6859, 4272.371
365.1681, 4388.293
365.6502, 4487.346
366.1323, 4558.418
366.6144, 4621.199
367.0965, 4690.449
367.5786, 4764.293
368.0608, 4847.516
368.5429, 4951.703
369.0250, 5067.721
369.5071, 5152.137
369.9892, 5181.156
370.4713, 5205.969
370.9535, 5256.119
371.4356, 5365.098
371.9177, 5420.658
372.3998, 5409.854
372.8819, 5350.963
373.3640, 5281.660
373.8462, 5196.729
374.3283, 5115.684
374.8104, 5055.000
375.2925, 5019.152
375.7746, 4942.158
376.2567, 4815.594
376.7389, 4663.490
377.2210, 4519.596
377.7031, 4385.148
378.1852, 4240.834
378.6673, 4073.533
379.1494, 3891.807
379.6316, 3727.404
380.1137, 3583.057
380.5958, 3442.943
381.0779, 3288.633
381.5600, 3123.928
382.0421, 2980.926
382.5243, 2872.389
383.0064, 2777.496
383.4885, 2656.328
383.9706, 2512.043
384.4527, 2375.805
384.9348, 2276.299
385.4170, 2195.838
385.8991, 2100.510
386.3812, 1979.707
386.8633, 1859.238
387.3454, 1764.188
387.8275, 1688.006
388.3097, 1614.350
388.7918, 1530.430
389.2739, 1449.482
389.7560, 1385.473
390.2381, 1340.984
390.7202, 1294.973
391.2024, 1231.523
391.6845, 1162.039
392.1666, 1098.963
392.6487, 1031.416
393.1308, 985.6465
393.6129, 989.4297
394.0951, 1036.697
394.5772, 1058.459
395.0593, 1028.465
395.5414, 973.0000
396.0235, 908.4961
396.5056, 804.7168
396.9878, 730.3125
397.4699, 713.5430
397.9520, 734.0391
398.4341, 727.8691
398.9162, 679.1914
399.3983, 619.9785
399.8805, 555.9629
400.3626, 472.4277
400.8447, 431.5957
401.3268, 451.9277
401.8089, 498.3496
402.2910, 520.4141
402.7732, 507.1816
403.2553, 502.5527
403.7374, 522.8574
404.2195, 564.6445
404.7017, 574.6289
405.1838, 548.3301
405.6659, 510.1973
406.1480, 479.8320
406.6301, 455.8164
407.1122, 429.9746
407.5944, 396.1426
408.0765, 362.9551
408.5586, 357.3516
409.0407, 382.4688
409.5228, 405.9395
410.0049, 394.4863
410.4871, 361.5566
410.9692, 356.1699
411.4513, 391.1113
411.9334, 422.1309
412.4155, 393.2051
412.8976, 319.3047
413.3798, 240.8379
413.8619, 167.9023
414.3440, 107.6621
414.8261, 68.17969
415.3082, 49.51758
415.7903, 43.29883
416.2725, 57.98828
416.7546, 76.72656
417.2367, 80.35742
417.7188, 47.03711
418.2009, 14.51953
418.6830, 4.222656
419.1652, 10.12500
419.6473, 10.18555
420.1294, 13.03516
420.6115, 36.56055
421.0936, 47.98242
421.5757, 42.41992
422.0579, 31.44336
422.5400, 9.792969
423.0221, 15.06250
423.5042, 31.33789
423.9863, 25.19141
424.4684, 25.56445
424.9506, 45.55469
425.4327, 88.24414
425.9148, 103.0410
426.3969, 69.82031
426.8790, 31.62891
427.3611, 29.55859
427.8433, 78.85156
428.3254, 114.6230
428.8075, 120.5293
429.2896, 109.6250
429.7717, 129.8672
430.2538, 186.7637
430.7360, 245.3574
431.2181, 286.5547
431.7002, 310.8418
432.1823, 322.2676
432.6644, 317.9551
433.1465, 311.0332
433.6287, 320.4609
434.1108, 343.6289
434.5929, 368.2363
435.0750, 395.4648
435.5571, 417.9746
436.0392, 414.4023
436.5214, 386.2812
437.0035, 366.4492
437.4856, 395.3672
437.9677, 444.2363
438.4498, 471.7031
438.9319, 459.3574
439.4141, 436.7070
439.8962, 416.1738
440.3783, 400.9199
440.8604, 398.7441
441.3425, 435.5098
441.8246, 469.3418
442.3068, 472.4961
442.7889, 434.8965
443.2710, 400.7500
443.7531, 378.9023
444.2352, 367.6816
444.7173, 365.0820
445.1995, 396.2422
445.6816, 408.0508
446.1637, 375.6836
446.6458, 305.9902
447.1279, 272.4434
447.6100, 298.8867
448.0922, 335.2969
448.5743, 358.1270
449.0564, 376.0137
449.5385, 352.2695
450.0206, 265.9238
450.5027, 156.0664
450.9849, 99.51758
451.4670, 104.8359
451.9491, 122.6250
452.4312, 138.6191
452.9133, 152.1328
453.3954, 156.0332
453.8776, 148.8047
454.3597, 142.4609
454.8418, 158.0762
455.3239, 187.2383
455.8060, 192.3789
456.2881, 158.9785
456.7703, 107.4727
457.2524, 56.93945
457.7345, 10.58594
458.2166, 19.10156
458.6987, 6.730469
459.1808, 17.51367
459.6630, 17.12500
460.1451, 15.07617
460.6272, 45.55469
461.1093, 45.61914
461.5914, 33.83984
462.0735, 33.48633
462.5557, 72.30078
463.0378, 104.1797
463.5199, 110.1836
464.0020, 92.66992
464.4841, 70.65820
464.9662, 27.32812
465.4484, 3.935547
465.9305, 3.113281
466.4126, 64.28320
466.8947, 103.8066
467.3768, 104.5547
467.8589, 82.32031
468.3411, 61.29688
468.8232, 40.03906
469.3053, 24.25195
469.7874, 23.04102
470.2695, 33.81836
470.7516, 3.037109
471.2338, 105.4004
471.7159, 200.0820
472.1980, 198.8828
472.6801, 105.4336
473.1622, 82.60547
473.6443, 170.9043
474.1265, 304.6094
474.6086, 374.6035
475.0907, 387.5430
475.5728, 386.6543
476.0549, 381.9277
476.5370, 382.4297
477.0192, 412.0879
477.5013, 472.3691
477.9834, 521.4121
478.4655, 510.0254
478.9476, 473.3711
479.4297, 457.6836
479.9119, 482.6934
480.3940, 524.7539
480.8761, 582.1992
481.3582, 647.2969
481.8403, 698.0449
482.3224, 729.3965
482.8046, 742.9727
483.2867, 734.7383
483.7688, 694.2324
484.2509, 667.1816
484.7330, 646.0938
485.2151, 646.3438
485.6973, 688.3008
486.1794, 825.2344
486.6615, 910.4727
487.1436, 905.2168
487.6258, 832.1758
488.1079, 800.9551
488.5900, 822.7812
489.0721, 855.9902
489.5542, 878.8457
490.0363, 891.4180
490.5185, 904.1113
491.0006, 916.5918
491.4827, 930.6738
491.9648, 950.6621
492.4469, 975.1016
492.9290, 995.4570
493.4112, 1007.494
493.8933, 1014.486
494.3754, 1016.730
494.8575, 1015.947
495.3396, 1022.527
495.8217, 1051.973
496.3039, 1088.438
496.7860, 1113.908
497.2681, 1124.461
497.7502, 1130.916
498.2323, 1123.881
498.7144, 1120.539
499.1966, 1144.311
499.6787, 1247.824
500.1608, 1333.203
500.6429, 1359.055
501.1250, 1329.348
501.6071, 1316.713
502.0893, 1341.740
502.5714, 1371.109
503.0535, 1389.199
503.5356, 1390.342
504.0177, 1395.312
504.4998, 1412.547
504.9820, 1425.684
505.4641, 1404.361
505.9462, 1340.506
506.4283, 1284.107
506.9104, 1248.457
507.3925, 1231.734
507.8747, 1233.914
508.3568, 1256.375
508.8389, 1271.957
509.3210, 1251.201
509.8031, 1208.162
510.2852, 1184.725
510.7674, 1190.090
511.2495, 1198.064
511.7316, 1186.199
512.2137, 1156.795
512.6958, 1114.900
513.1779, 1040.207
513.6600, 972.1348
514.1422, 937.9844
514.6243, 934.9805
515.1064, 942.2188
515.5885, 974.1289
516.0706, 996.7852
516.5527, 986.5605
517.0349, 907.6426
517.5170, 863.1758
517.9991, 890.1211
518.4812, 944.3613
518.9633, 971.8691
519.4454, 949.9746
519.9276, 942.9141
520.4097, 972.7715
520.8918, 1028.861
521.3739, 1031.545
521.8560, 961.1445
522.3381, 908.7969
522.8203, 948.6934
523.3024, 1073.283
523.7845, 1174.602
524.2666, 1242.053
524.7487, 1289.725
525.2308, 1337.318
525.7130, 1384.414
526.1951, 1422.465
526.6772, 1442.912
527.1593, 1461.203
527.6415, 1479.852
528.1236, 1499.033
528.6057, 1551.674
529.0878, 1707.717
529.5699, 1865.338
530.0521, 1930.816
530.5342, 1867.279
531.0163, 1832.627
531.4984, 1896.279
531.9805, 2004.914
532.4626, 2102.412
532.9448, 2193.736
533.4269, 2257.859
533.9090, 2281.256
534.3911, 2272.561
534.8732, 2267.729
535.3553, 2270.674
535.8375, 2271.209
536.3196, 2261.891
536.8017, 2241.742
537.2838, 2238.109
537.7659, 2252.768
538.2480, 2274.562
538.7302, 2303.328
539.2123, 2334.371
539.6944, 2326.703
540.1765, 2257.074
540.6586, 2171.582
541.1407, 2135.389
541.6229, 2138.848
542.1050, 2145.430
542.5871, 2149.176
543.0692, 2137.504
543.5513, 2085.658
544.0334, 1993.604
544.5156, 1921.340
544.9977, 1925.646
545.4798, 1945.025
545.9619, 1929.072
546.4440, 1825.844
546.9261, 1749.828
547.4083, 1735.309
547.8904, 1754.182
548.3725, 1755.447
548.8546, 1734.184
549.3367, 1702.834
549.8188, 1659.109
550.3010, 1605.238
550.7831, 1568.717
551.2652, 1551.635
551.7473, 1544.842
552.2294, 1552.971
552.7115, 1571.936
553.1937, 1551.270
553.6758, 1479.059
554.1579, 1400.137
554.6400, 1374.518
555.1221, 1387.719
555.6042, 1398.990
556.0864, 1396.975
556.5685, 1383.615
557.0506, 1350.938
557.5327, 1306.209
558.0148, 1274.863
558.4969, 1281.656
558.9791, 1296.367
559.4612, 1303.631
559.9433, 1303.504
560.4254, 1286.826
560.9075, 1230.086
561.3896, 1168.416
561.8718, 1132.195
562.3539, 1134.955
562.8360, 1142.170
563.3181, 1161.283
563.8002, 1178.572
564.2823, 1155.570
564.7645, 1083.977
565.2466, 1009.613
565.7287, 946.6035
566.2108, 895.6367
566.6929, 872.6074
567.1750, 879.5391
567.6572, 872.0391
568.1393, 788.1973
568.6214, 667.4160
569.1035, 595.2129
569.5856, 591.9551
570.0677, 606.5254
570.5499, 614.5938
571.0320, 608.6074
571.5141, 576.9336
571.9962, 482.3555
572.4783, 394.1074
572.9604, 343.9375
573.4426, 326.1445
573.9247, 308.3926
574.4068, 276.5098
574.8889, 252.6035
575.3710, 249.2031
575.8531, 273.6680
576.3353, 279.0566
576.8174, 258.1191
577.2995, 228.7246
577.7816, 210.8730
578.2637, 207.1797
578.7458, 184.3477
579.2280, 131.1797
579.7101, 68.57227
580.1922, 34.12695
580.6743, 24.46289
581.1564, 20.50586
581.6385, 18.84375
582.1207, 15.00977
582.6028, 4.115234
583.0849, 12.16211
583.5670, 32.76758
584.0491, 82.52148
584.5313, 120.7207
585.0134, 106.1094
585.4955, 9.269531
585.9776, 62.83594
586.4597, 68.85352
586.9418, 40.67188
587.4240, 13.38086
587.9061, 13.58008
588.3882, 34.31445
588.8703, 46.41602
589.3524, 51.38867
589.8345, 56.70508
590.3167, 67.21680
590.7988, 63.65039
591.2809, 28.70117
591.7630, 29.69141
592.2451, 64.05664
592.7272, 73.67188
593.2094, 67.82617
593.6915, 41.69922
594.1736, 10.07031
594.6557, 3.253906
595.1378, 30.07812
595.6199, 65.02734
596.1021, 96.61523
596.5842, 122.2402
597.0663, 138.2344
597.5484, 144.0996
598.0305, 139.1055
598.5126, 111.4707
598.9948, 69.60547
599.4769, 49.88281
599.9590, 72.78711
600.4411, 95.47266
600.9232, 104.3828
601.4053, 98.95508
601.8875, 89.36719
602.3696, 74.30273
602.8517, 58.38086
603.3338, 37.97656
603.8159, 15.17969
604.2980, 29.87109
604.7802, 95.50586
605.2623, 166.8457
605.7444, 179.0898
606.2265, 149.2070
606.7086, 121.9160
607.1907, 114.5840
607.6729, 115.0645
608.1550, 114.9297
608.6371, 114.7793
609.1192, 116.6504
609.6013, 120.8965
610.0834, 127.7891
610.5656, 139.3340
611.0477, 157.0898
611.5298, 167.1055
612.0119, 157.0078
612.4940, 150.8262
612.9761, 172.6680
613.4583, 244.8555
613.9404, 253.9473
614.4225, 169.5645
614.9046, 66.57812
615.3867, 69.78125
615.8688, 169.5488
616.3510, 234.0664
616.8331, 207.6406
617.3152, 148.8730
617.7973, 153.2988
618.2794, 206.0117
618.7615, 249.3457
619.2437, 238.6797
619.7258, 216.0391
620.2079, 208.6738
620.6900, 216.3867
621.1721, 244.1523
621.6542, 344.7129
622.1364, 432.7402
622.6185, 444.4551
623.1006, 322.4062
623.5827, 250.4355
624.0648, 237.4746
624.5469, 263.4844
625.0291, 316.9453
625.5112, 408.5898
625.9933, 461.5645
626.4754, 451.3047
626.9575, 413.8535
627.4396, 420.2441
627.9218, 462.9395
628.4039, 502.5547
628.8860, 527.6035
629.3681, 539.9746
629.8502, 528.0352
630.3323, 492.5742
630.8145, 460.2930
631.2966, 455.0625
631.7787, 456.7383
632.2608, 453.7617
632.7429, 447.8105
633.2250, 429.7520
633.7072, 367.8574
634.1893, 311.6523
634.6714, 305.8828
635.1535, 389.0938
635.6356, 430.7285
636.1177, 412.4062
636.5999, 359.0684
637.0820, 305.3652
637.5641, 250.8691
638.0462, 214.8496
638.5283, 215.7676
639.0104, 228.3262
639.4926, 192.5352
639.9747, 116.7520
640.4568, 50.41211
640.9389, 27.39844
641.4210, 23.19922
641.9031, 15.62500
642.3853, 3.841797
642.8674, 4.949219
643.3495, 7.654297
643.8316, 4.140625
644.3137, 8.724609
644.7958, 40.66406
645.2780, 63.11719
645.7601, 76.15039
646.2422, 78.29102
646.7243, 63.33789
647.2064, 25.06250
647.6885, 6.738281
648.1707, 21.69727
648.6528, 52.33398
649.1349, 59.85938
649.6170, 48.81836
650.0991, 47.67383
650.5812, 81.92383
651.0634, 125.9492
651.5455, 148.0254
652.0276, 150.8828
652.5097, 149.5391
652.9918, 136.5840
653.4739, 135.0625
653.9561, 165.4121
654.4382, 236.7559
654.9203, 294.1914
655.4024, 315.0156
655.8845, 332.9062
656.3666, 373.6973
656.8488, 455.1836
657.3309, 503.1934
657.8130, 509.7168
658.2951, 494.5664
658.7772, 483.0488
659.2593, 474.5664
659.7415, 461.5332
660.2236, 434.8418
660.7057, 414.3711
661.1878, 441.6895
661.6699, 499.8262
662.1520, 542.4609
662.6342, 523.6055
663.1163, 502.3008
663.5984, 524.0488
664.0805, 582.8301
664.5626, 622.8828
665.0447, 615.1875
665.5269, 599.1738
666.0090, 593.0469
666.4911, 599.8066
666.9732, 595.0723
667.4553, 579.7949
667.9374, 551.1328
668.4196, 489.8105
668.9017, 398.4434
669.3838, 374.9434
669.8659, 439.8203
670.3480, 516.8242
670.8301, 506.7168
671.3123, 442.5781
671.7944, 397.8633
672.2765, 412.2090
672.7586, 424.2500
673.2407, 393.8770
673.7228, 333.6641
674.2050, 266.8027
674.6871, 164.3887
675.1692, 94.99805
675.6513, 102.5996
676.1334, 165.5020
676.6155, 162.7461
677.0977, 56.18750
677.5798, 28.18164
678.0619, 19.25000
678.5440, 69.43945
679.0261, 102.4941
679.5082, 78.13281
679.9904, 32.41016
680.4725, 20.58984
680.9546, 70.75391
681.4367, 98.91211
681.9188, 101.4746
682.4009, 93.66211
682.8831, 69.26172
683.3652, 47.66016
683.8473, 50.52930
684.3294, 109.6777
684.8115, 150.4570
685.2936, 142.5176
685.7758, 119.2695
686.2579, 128.9766
686.7400, 195.0898
687.2221, 227.6426
687.7042, 201.8359
688.1863, 141.3867
688.6685, 96.94531
689.1506, 68.59180
689.6327, 58.32031
690.1148, 75.75195
690.5969, 105.9297
691.0790, 134.7832
691.5612, 159.2598
692.0433, 163.7441
692.5255, 135.3496
693.0076, 88.01367
693.4897, 16.69531
693.9718, 83.70312
694.4539, 140.8652
694.9360, 98.68164
695.4182, 54.00195
695.9003, 61.07227
696.3824, 134.7051
696.8645, 198.0000
697.3466, 250.9941
697.8287, 292.6133
698.3109, 317.1660
698.7930, 328.7617
699.2751, 342.9219
699.7572, 361.2754
700.2393, 384.3633
700.7214, 415.1484
701.2036, 450.9688
701.6857, 487.3320
702.1678, 518.6348
702.6499, 556.7949
703.1320, 604.5469
703.6141, 661.1328
704.0963, 727.3613
704.5784, 827.3438
705.0605, 896.6523
705.5426, 907.8867
706.0247, 881.8281
706.5068, 908.6289
706.9890, 993.1562
707.4711, 1079.279
707.9532, 1127.646
708.4353, 1160.094
708.9174, 1236.367
709.3995, 1351.912
709.8817, 1462.148
710.3638, 1508.221
710.8459, 1552.865
711.3280, 1670.213
711.8101, 1882.750
712.2922, 2038.152
712.7744, 2017.277
713.2565, 1982.381
713.7386, 2046.072
714.2207, 2256.348
714.7028, 2445.623
715.1849, 2619.906
715.6671, 2765.871
716.1492, 2858.172
716.6313, 2901.986
717.1134, 2969.301
717.5955, 3072.090
718.0776, 3200.129
718.5598, 3356.305
719.0419, 3525.266
719.5240, 3675.609
720.0061, 3769.393
720.4882, 3876.600
720.9703, 4045.695
721.4525, 4251.549
721.9346, 4437.846
722.4167, 4593.992
722.8988, 4737.742
723.3809, 4877.062
723.8630, 5006.039
724.3452, 5091.693
724.8273, 5126.344
725.3094, 5171.609
725.7915, 5275.188
726.2736, 5402.686
726.7557, 5459.369
727.2379, 5451.598
727.7200, 5429.715
728.2021, 5448.500
728.6842, 5451.398
729.1663, 5393.508
729.6484, 5270.465
730.1306, 5102.428
730.6127, 4837.381
731.0948, 4576.898
731.5769, 4381.117
732.0590, 4271.258
732.5411, 4128.873
733.0233, 3947.178
733.5054, 3748.150
733.9875, 3536.523
734.4696, 3318.389
734.9517, 3159.508
735.4338, 3074.779
735.9160, 2987.654
736.3981, 2794.566
736.8802, 2554.742
737.3623, 2356.758
737.8444, 2228.357
738.3265, 2135.195
738.8087, 2095.084
739.2908, 2070.693
739.7729, 2005.592
740.2550, 1861.904
740.7371, 1744.223
741.2192, 1664.623
741.7014, 1615.592
742.1835, 1589.803
742.6656, 1588.379
743.1477, 1576.191
743.6298, 1534.484
744.1119, 1483.887
744.5941, 1460.504
745.0762, 1457.365
745.5583, 1450.289
746.0404, 1417.377
746.5225, 1387.033
747.0046, 1360.443
747.4868, 1343.672
747.9689, 1376.205
748.4510, 1525.900
748.9331, 1640.430
749.4152, 1656.141
749.8973, 1585.920
750.3795, 1577.520
750.8616, 1636.801
751.3437, 1716.859
751.8258, 1793.217
752.3079, 1864.625
752.7900, 1938.270
753.2722, 2012.400
753.7543, 2059.957
754.2364, 2048.916
754.7185, 2013.566
755.2006, 1970.775
755.6827, 1914.293
756.1649, 1900.625
756.6470, 1991.297
757.1291, 2081.219
757.6112, 2097.256
758.0933, 2009.191
758.5754, 1993.830
759.0576, 2069.367
759.5397, 2156.533
760.0218, 2166.041
760.5039, 2119.098
760.9860, 2080.357
761.4681, 2060.029
761.9503, 2049.881
762.4324, 2060.297
762.9145, 2069.857
763.3966, 2052.012
763.8787, 1978.812
764.3608, 1913.029
764.8430, 1861.195
765.3251, 1824.430
765.8072, 1810.863
766.2893, 1834.459
766.7714, 1822.379
767.2535, 1754.652
767.7357, 1666.117
768.2178, 1614.605
768.6999, 1593.324
769.1820, 1576.191
769.6641, 1560.158
770.1462, 1535.934
770.6284, 1482.791
771.1105, 1417.365
771.5926, 1371.818
772.0747, 1370.270
772.5568, 1373.516
773.0389, 1375.719
773.5211, 1375.680
774.0032, 1367.609
774.4853, 1346.248
774.9674, 1337.477
775.4495, 1352.852
775.9316, 1382.436
776.4138, 1402.816
776.8959, 1414.916
777.3780, 1424.287
777.8601, 1444.471
778.3422, 1454.516
778.8243, 1423.818
779.3065, 1364.049
779.7886, 1324.736
780.2707, 1333.605
780.7528, 1352.809
781.2349, 1372.062
781.7170, 1390.947
782.1992, 1406.725
782.6813, 1420.494
783.1634, 1425.861
783.6455, 1405.555
784.1276, 1376.381
784.6097, 1401.430
785.0919, 1476.049
785.5740, 1553.664
786.0561, 1615.547
786.5382, 1660.053
787.0203, 1674.969
787.5024, 1660.531
787.9846, 1665.314
788.4667, 1733.590
788.9488, 1791.381
789.4309, 1800.088
789.9130, 1755.260
790.3951, 1749.441
790.8773, 1789.162
791.3594, 1837.961
791.8415, 1876.777
792.3236, 1902.529
792.8057, 1903.404
793.2878, 1878.936
793.7700, 1846.879
794.2521, 1815.672
794.7342, 1784.803
795.2163, 1749.490
795.6984, 1703.850
796.1805, 1695.576
796.6627, 1762.531
797.1448, 1823.721
797.6269, 1820.289
798.1090, 1742.943
798.5911, 1686.021
799.0732, 1653.232
799.5554, 1635.088
800.0375, 1618.992
800.5196, 1611.082
801.0017, 1630.213
801.4838, 1682.719
801.9659, 1732.488
802.4481, 1745.490
802.9302, 1752.783
803.4123, 1779.994
803.8944, 1844.803
804.3765, 1898.451
804.8586, 1933.414
805.3408, 1971.199
805.8229, 2034.861
806.3050, 2124.162
806.7871, 2205.498
807.2692, 2270.182
807.7513, 2352.115
808.2335, 2516.021
808.7156, 2710.473
809.1977, 2851.912
809.6798, 2905.824
810.1619, 2968.658
810.6440, 3085.865
811.1262, 3228.664
811.6083, 3369.014
812.0904, 3513.473
812.5725, 3634.219
813.0546, 3719.863
813.5367, 3801.346
814.0189, 3933.402
814.5010, 4100.691
814.9831, 4203.109
815.4652, 4213.389
815.9473, 4203.219
816.4294, 4241.449
816.9116, 4298.031
817.3937, 4335.113
817.8758, 4335.520
818.3579, 4332.508
818.8400, 4337.428
819.3221, 4338.680
819.8043, 4324.268
820.2864, 4292.371
820.7685, 4255.652
821.2506, 4216.506
821.7327, 4172.285
822.2148, 4120.166
822.6970, 4059.408
823.1791, 3987.209
823.6612, 3906.262
824.1433, 3813.207
824.6254, 3695.467
825.1075, 3570.186
825.5897, 3458.715
826.0718, 3373.984
826.5539, 3287.135
827.0360, 3195.584
827.5181, 3102.895
828.0002, 3012.734
828.4824, 2926.029
828.9645, 2836.135
829.4466, 2744.209
829.9287, 2641.215
830.4108, 2498.961
830.8929, 2346.059
831.3751, 2227.107
831.8572, 2168.637
832.3393, 2113.066
832.8214, 2044.234
833.3035, 1965.367
833.7856, 1877.449
834.2678, 1771.439
834.7499, 1688.805
835.2320, 1638.943
835.7141, 1598.225
836.1962, 1534.408
836.6783, 1453.965
837.1605, 1387.273
837.6426, 1346.430
838.1247, 1293.691
838.6068, 1171.852
839.0889, 1035.707
839.5710, 950.4531
840.0532, 974.9121
840.5353, 965.2422
841.0174, 896.1875
841.4995, 807.6387
841.9816, 739.5586
842.4637, 692.2598
842.9459, 651.5000
843.4280, 617.1953
843.9101, 582.9141
844.3922, 542.9727
844.8743, 497.6816
845.3564, 449.4590
845.8386, 400.5469
846.3207, 340.7285
846.8028, 231.4219
847.2849, 132.2148
847.7670, 101.1133
848.2491, 186.0410
848.7313, 202.0781
849.2134, 128.2324
849.6955, 38.84766
850.1776, 11.00977
850.6597, 29.31836
851.1418, 44.74414
851.6240, 52.76367
852.1061, 43.69922
852.5882, 13.00000
853.0703, 76.02734
853.5524, 107.1230
854.0345, 91.13477
854.5167, 68.16016
854.9988, 28.29297
855.4809, 1.708984
855.9630, 3.279297
856.4452, 44.08984
856.9273, 65.78516
857.4094, 65.83984
857.8915, 62.62109
858.3737, 72.53906
858.8558, 88.31836
859.3379, 105.0254
859.8200, 122.9805
860.3021, 123.8574
860.7842, 82.00586
861.2664, 36.65039
861.7485, 6.134766
862.2306, 10.96484
862.7127, 6.083984
863.1948, 65.53125
863.6769, 123.7148
864.1591, 154.6934
864.6412, 160.5410
865.1233, 138.8066
865.6054, 91.94922
866.0875, 51.71680
866.5696, 33.63672
867.0518, 30.72266
867.5339, 45.46484
868.0160, 79.07031
868.4981, 93.90039
868.9802, 85.25195
869.4623, 67.30273
869.9445, 41.00586
870.4266, 11.16406
870.9087, 2.105469
871.3908, 12.45703
871.8729, 27.94336
872.3550, 54.41406
872.8372, 70.74609
873.3193, 49.78711
873.8014, 1.222656
874.2835, 39.31250
874.7656, 51.70508
875.2477, 52.45117
875.7299, 39.29688
876.2120, 18.19336
876.6941, 15.17188
877.1762, 30.22070
877.6583, 40.32617
878.1404, 33.72070
878.6226, 18.71094
879.1047, 3.943359
879.5868, 26.20508
880.0689, 28.10742
880.5510, 19.61328
881.0331, 64.00195
881.5153, 91.24023
881.9974, 104.6484
882.4795, 106.8867
882.9616, 93.91016
883.4437, 93.62109
883.9258, 114.9727
884.4080, 147.0039
884.8901, 181.2305
885.3722, 211.8652
885.8543, 223.1641
886.3364, 189.6699
886.8185, 168.5234
887.3007, 202.4648
887.7828, 256.4199
888.2649, 279.7891
888.7470, 256.7148
889.2291, 244.1758
889.7112, 249.4824
890.1934, 260.2695
890.6755, 258.0391
891.1576, 247.9727
891.6397, 247.1953
892.1218, 260.1719
892.6039, 275.9395
893.0861, 290.9160
893.5682, 302.5508
894.0503, 307.3223
894.5324, 299.0332
895.0145, 300.6348
895.4966, 321.1758
895.9788, 334.8809
896.4609, 307.7305
896.9430, 250.2617
897.4251, 233.2617
897.9072, 260.8496
898.3893, 297.6992
898.8715, 324.7305
899.3536, 344.2754
899.8357, 356.8652
900.3178, 361.7773
900.7999, 368.5352
901.2820, 373.1777
901.7642, 387.1660
902.2463, 422.2773
902.7284, 472.7832
903.2105, 495.4883
903.6926, 491.2637
904.1747, 486.8086
904.6569, 506.2500
905.1390, 527.6250
905.6211, 526.8203
906.1032, 507.6992
906.5853, 489.0527
907.0674, 474.7559
907.5496, 462.6289
908.0317, 447.8965
908.5138, 436.5898
908.9959, 452.8828
909.4780, 496.8223
909.9601, 532.2617
910.4423, 544.7734
910.9244, 540.5117
911.4065, 521.4902
911.8886, 500.2598
912.3707, 494.9043
912.8528, 521.2949
913.3350, 554.0488
913.8171, 598.3926
914.2992, 634.5801
914.7813, 634.2539
915.2634, 595.2500
915.7455, 569.9902
916.2277, 567.3301
916.7098, 568.3691
917.1919, 543.4258
917.6740, 511.2090
918.1561, 506.0527
918.6382, 550.0703
919.1204, 577.4082
919.6025, 544.2285
920.0846, 504.3633
920.5667, 495.7070
921.0488, 523.4492
921.5309, 521.1895
922.0131, 488.4199
922.4952, 447.5820
922.9773, 413.4844
923.4594, 387.2070
923.9415, 361.0977
924.4236, 335.4785
924.9058, 335.5918
925.3879, 421.9512
925.8700, 479.9570
926.3521, 451.4902
926.8342, 351.9570
927.3163, 296.7324
927.7985, 289.4727
928.2806, 296.8828
928.7627, 310.4258
929.2448, 319.3984
929.7269, 301.2969
930.2090, 265.1914
930.6912, 238.0391
931.1733, 246.8418
931.6554, 254.2617
932.1375, 246.7598
932.6196, 228.0996
933.1017, 203.4512
933.5839, 170.4238
934.0660, 145.0664
934.5481, 133.6406
935.0302, 124.4707
935.5123, 87.08008
935.9944, 43.18555
936.4766, 35.50586
936.9587, 88.74805
937.4408, 134.7383
937.9229, 147.6504
938.4050, 157.1426
938.8871, 181.4316
939.3693, 229.1211
939.8514, 248.1797
940.3335, 235.6270
940.8156, 210.7363
941.2977, 184.4473
941.7798, 163.0449
942.2620, 154.5254
942.7441, 157.6465
943.2262, 161.9316
943.7083, 162.6777
944.1904, 171.7598
944.6725, 199.5625
945.1547, 241.6035
945.6368, 256.7539
946.1189, 241.2539
946.6010, 226.2930
947.0831, 233.8789
947.5652, 246.1992
948.0474, 237.5488
948.5295, 214.1992
949.0116, 189.7031
949.4937, 143.3125
949.9758, 126.0273
950.4579, 158.8496
950.9401, 217.8867
951.4222, 278.2637
951.9043, 341.0996
952.3864, 349.3164
952.8685, 283.7988
953.3506, 210.8770
953.8328, 198.1230
954.3149, 221.2188
954.7970, 256.7246
955.2791, 311.0625
955.7612, 332.0410
956.2433, 282.7754
956.7255, 234.1406
957.2076, 234.9941
957.6897, 283.2812
958.1718, 298.2539
958.6539, 280.6914
959.1360, 270.9961
959.6182, 316.5859
960.1003, 367.5020
960.5824, 379.5762
961.0645, 355.1191
961.5466, 316.1309
962.0287, 239.0117
962.5109, 191.0137
962.9930, 193.1641
963.4751, 230.2793
963.9572, 276.6426
964.4393, 327.6914
964.9214, 356.0918
965.4036, 344.5371
965.8857, 324.2461
966.3678, 312.3906
966.8499, 310.3125
967.3320, 321.3184
967.8141, 370.9707
968.2963, 382.6504
968.7784, 340.1875
969.2605, 291.5410
969.7426, 287.3672
970.2247, 317.8398
970.7068, 353.6953
971.1890, 392.2773
971.6711, 417.0879
972.1532, 402.4688
972.6353, 382.3574
973.1174, 384.9004
973.5995, 409.8223
974.0817, 407.5078
974.5638, 366.6562
975.0459, 339.4512
975.5280, 354.2344
976.0101, 390.0449
976.4922, 399.0059
976.9744, 390.8535
977.4565, 394.2480
977.9386, 443.1484
978.4207, 480.5449
978.9028, 482.2891
979.3849, 462.7500
979.8671, 433.9395
980.3492, 388.5664
980.8313, 388.0977
981.3134, 450.4492
981.7955, 507.3555
982.2776, 465.2715
982.7598, 378.7734
983.2419, 325.1211
983.7240, 318.1328
984.2061, 323.7520
984.6882, 346.6055
985.1703, 365.4297
985.6525, 374.4062
986.1346, 372.2500
986.6167, 340.3086
987.0988, 279.3809
987.5809, 214.5977
988.0630, 143.0410
988.5452, 88.67383
989.0273, 94.82617
989.5094, 135.7812
989.9915, 144.5879
990.4736, 68.26562
990.9557, 23.82617
991.4379, 34.12109
991.9200, 68.96484
992.4021, 78.95312
992.8842, 71.79492
993.3663, 93.22656
993.8484, 161.5859
994.3306, 193.5449
994.8127, 76.65430
995.2948, 64.88086
995.7769, 110.2500
996.2590, 36.02148
996.7411, 9.046875
997.2233, 43.06055
997.7054, 75.08008
998.1875, 50.91016
998.6696, 4.460938
999.1517, 28.96875
999.6339, 103.0742
1000.116, 141.6836
1000.598, 62.45117
1001.080, 7.478516
1001.562, 23.86523
1002.044, 4.089844
1002.527, 33.79492
1003.009, 93.51367
1003.491, 105.8652
1003.973, 48.22266
1004.455, 17.28320
1004.937, 18.24609
1005.419, 12.52148
1005.901, 40.49609
1006.383, 67.68555
1006.866, 52.02539
1007.348, 46.35742
1007.830, 131.5332
1008.312, 139.1543
1008.794, 85.56250
1009.276, 69.90039
1009.758, 88.00586
1010.240, 104.4902
1010.723, 73.66211
1011.205, 59.43555
1011.687, 127.2246
1012.169, 240.5625
1012.651, 297.9199
1013.133, 276.2598
1013.615, 261.3340
1014.097, 265.5059
1014.579, 281.3242
1015.062, 304.1387
1015.544, 329.2793
1016.026, 345.8008
1016.508, 349.0508
1016.990, 358.8594
1017.472, 380.0703
1017.954, 414.0801
1018.436, 465.2852
1018.919, 532.0352
1019.401, 589.4766
1019.883, 637.6016
1020.365, 673.8770
1020.847, 695.4023
1021.329, 705.6035
1021.811, 703.7637
1022.293, 693.5410
1022.776, 682.9004
1023.258, 644.8496
1023.740, 660.2324
1024.222, 758.5098
1024.704, 876.9238
1025.186, 920.9219
1025.668, 911.7227
1026.150, 921.5645
1026.632, 961.9629
1027.115, 1002.812
1027.597, 1026.842
1028.079, 1044.154
1028.561, 1059.086
1029.043, 1072.258
1029.525, 1093.854
1030.007, 1122.857
1030.489, 1167.609
1030.971, 1254.217
1031.454, 1333.320
1031.936, 1313.682
1032.418, 1237.113
1032.900, 1193.549
1033.382, 1216.344
1033.864, 1271.105
1034.346, 1367.053
1034.828, 1473.010
1035.311, 1556.684
1035.793, 1619.223
1036.275, 1658.383
1036.757, 1674.256
1037.239, 1689.248
1037.721, 1719.457
1038.203, 1754.342
1038.685, 1790.736
1039.167, 1826.443
1039.650, 1840.092
1040.132, 1819.588
1040.614, 1833.275
1041.096, 1917.510
1041.578, 2023.926
1042.060, 2074.023
1042.542, 2088.357
1043.024, 2105.961
1043.506, 2141.555
1043.989, 2173.812
1044.471, 2195.008
1044.953, 2216.617
1045.435, 2253.395
1045.917, 2302.570
1046.399, 2319.793
1046.881, 2306.242
1047.363, 2303.492
1047.846, 2355.422
1048.328, 2413.271
1048.810, 2450.000
1049.292, 2463.467
1049.774, 2450.414
1050.256, 2392.613
1050.738, 2378.164
1051.220, 2434.869
1051.703, 2513.533
1052.185, 2547.877
1052.667, 2552.191
1053.149, 2539.949
1053.631, 2504.363
1054.113, 2507.387
1054.595, 2595.842
1055.077, 2683.863
1055.559, 2724.773
1056.042, 2729.254
1056.524, 2767.420
1057.006, 2831.373
1057.488, 2871.945
1057.970, 2813.770
1058.452, 2782.906
1058.934, 2896.859
1059.416, 3074.453
1059.898, 3158.676
1060.381, 3111.748
1060.863, 3095.934
1061.345, 3132.602
1061.827, 3178.379
1062.309, 3170.080
1062.791, 3145.545
1063.273, 3162.986
1063.755, 3226.689
1064.238, 3305.910
1064.720, 3420.693
1065.202, 3518.664
1065.684, 3582.166
1066.166, 3616.209
1066.648, 3624.717
1067.130, 3613.219
1067.612, 3608.980
1068.094, 3625.211
1068.577, 3639.641
1069.059, 3639.439
1069.541, 3630.334
1070.023, 3615.998
1070.505, 3593.234
1070.987, 3597.320
1071.469, 3634.863
1071.951, 3636.227
1072.433, 3509.859
1072.916, 3352.348
1073.398, 3283.223
1073.880, 3281.291
1074.362, 3266.631
1074.844, 3208.990
1075.326, 3165.275
1075.808, 3147.768
1076.290, 3128.572
1076.773, 3072.979
1077.255, 2995.018
1077.737, 2934.742
1078.219, 2899.963
1078.701, 2842.486
1079.183, 2685.688
1079.665, 2554.355
1080.147, 2526.566
1080.630, 2577.896
1081.112, 2558.207
1081.594, 2470.932
1082.076, 2373.934
1082.558, 2277.676
1083.040, 2192.914
1083.522, 2136.873
1084.004, 2098.838
1084.486, 2065.775
1084.969, 2054.070
1085.451, 1983.559
1085.933, 1838.758
1086.415, 1699.352
1086.897, 1631.258
1087.379, 1606.949
1087.861, 1601.578
1088.343, 1601.756
1088.825, 1556.430
1089.308, 1373.180
1089.790, 1240.914
1090.272, 1211.758
1090.754, 1230.049
1091.236, 1208.641
1091.718, 1150.758
1092.200, 1086.453
1092.682, 1019.500
1093.165, 972.7266
1093.647, 986.8223
1094.129, 1001.623
1094.611, 976.2656
1095.093, 917.1875
1095.575, 862.2383
1096.057, 810.0957
1096.539, 764.7910
1097.021, 727.8008
1097.504, 701.1758
1097.986, 698.2754
1098.468, 699.3672
1098.950, 681.9238
1099.432, 630.0566
1099.914, 597.4297
1100.396, 592.4414
1100.878, 583.3906
1101.360, 543.0215
1101.843, 482.7031
1102.325, 396.7168
1102.807, 306.5488
1103.289, 290.8516
1103.771, 473.4121
1104.253, 606.7891
1104.735, 650.6836
1105.218, 629.5176
1105.700, 545.9844
1106.182, 421.7324
1106.664, 375.5293
1107.146, 420.9707
1107.628, 466.4375
1108.110, 467.4492
1108.592, 440.7949
1109.074, 372.6621
1109.557, 284.1738
1110.039, 273.8770
1110.521, 342.9922
1111.003, 397.4863
1111.485, 408.4395
1111.967, 400.5898
1112.449, 390.4746
1112.931, 377.0703
1113.413, 357.7500
1113.896, 329.9141
1114.378, 312.3281
1114.860, 307.1152
1115.342, 301.4629
1115.824, 286.3418
1116.306, 267.9922
1116.788, 253.7246
1117.270, 244.4668
1117.753, 242.1816
1118.235, 247.0039
1118.717, 263.7852
1119.199, 301.6484
1119.681, 332.0488
1120.163, 312.2910
1120.645, 264.5742
1121.127, 260.9434
1121.609, 299.0645
1122.092, 327.7402
1122.574, 321.0352
1123.056, 301.6230
1123.538, 270.1660
1124.020, 232.8242
1124.502, 194.9355
1124.984, 159.5449
1125.466, 162.9844
1125.948, 219.9668
1126.431, 253.4316
1126.913, 175.4980
1127.395, 80.61914
1127.877, 39.17969
1128.359, 45.43750
1128.841, 48.34375
1129.323, 47.39258
1129.805, 50.15430
1130.288, 58.95703
1130.770, 74.10938
1131.252, 127.2852
1131.734, 171.6582
1132.216, 130.6016
1132.698, 51.16992
1133.180, 131.1934
1133.662, 88.80664
1134.145, 31.26758
1134.627, 26.08008
1135.109, 47.92578
1135.591, 65.02734
1136.073, 76.02539
1136.555, 78.11719
1137.037, 61.30664
1137.519, 48.61719
1138.001, 39.54492
1138.484, 38.52734
1138.966, 61.38477
1139.448, 93.00195
1139.930, 90.83203
1140.412, 56.25195
1140.894, 25.28320
1141.376, 22.71875
1141.858, 11.36523
1142.340, 23.18359
1142.823, 67.23633
1143.305, 96.23438
1143.787, 112.0840
1144.269, 131.4395
1144.751, 159.8105
1145.233, 163.5312
1145.715, 85.13867
1146.197, 16.24414
1146.680, 17.08594
1147.162, 67.29297
1147.644, 58.86133
1148.126, 0.9628910
1148.608, 20.72070
1149.090, 37.19531
1149.572, 96.49805
1150.054, 93.86719
1150.536, 66.05859
1151.019, 47.22070
1151.501, 38.17773
1151.983, 24.16992
1152.465, 3.972656
1152.947, 16.06445
1153.429, 127.7910
1153.911, 229.1191
1154.393, 178.7578
1154.875, 55.83398
1155.358, 1.509766
1155.840, 51.95898
1156.322, 90.48047
1156.804, 116.2539
1157.286, 123.0293
1157.768, 84.93945
1158.250, 39.79883
1158.732, 35.64453
1159.215, 66.51562
1159.697, 107.5332
1160.179, 174.2324
1160.661, 203.3613
1161.143, 179.7344
1161.625, 140.2891
1162.107, 125.9512
1162.589, 125.3867
1163.072, 120.7930
1163.554, 110.6953
1164.036, 100.1836
1164.518, 93.27930
1165.000, 79.33008
1165.482, 47.91016
1165.964, 20.87695
1166.446, 48.02344
1166.928, 108.0195
1167.411, 158.3984
1167.893, 193.5547
1168.375, 200.4961
1168.857, 141.6719
1169.339, 97.22266
1169.821, 105.6348
1170.303, 144.3086
1170.785, 143.9922
1171.267, 116.2578
1171.750, 99.96484
1172.232, 109.4023
1172.714, 126.4395
1173.196, 153.8613
1173.678, 177.1328
1174.160, 189.2598
1174.642, 189.5391
1175.124, 157.8164
1175.607, 103.1719
1176.089, 77.46094
1176.571, 139.8301
1177.053, 190.1562
1177.535, 160.1816
1178.017, 116.0957
1178.499, 131.7676
1178.981, 205.8633
1179.464, 191.7305
1179.946, 94.53320
1180.428, 21.84180
1180.910, 61.31055
1181.392, 121.4141
1181.874, 179.0781
1182.356, 213.3086
1182.838, 173.9395
1183.320, 55.72266
1183.802, 32.42188
1184.285, 120.4707
1184.767, 203.5527
1185.249, 178.2266
1185.731, 133.5762
1186.213, 137.8809
1186.695, 170.4727
1187.177, 160.8730
1187.659, 103.8652
1188.142, 94.50195
1188.624, 154.8789
1189.106, 209.9238
1189.588, 178.1289
1190.070, 126.0371
1190.552, 100.2871
1191.034, 100.4629
1191.516, 119.9434
1191.999, 164.6562
1192.481, 173.7969
1192.963, 122.0195
1193.445, 65.32422
1193.927, 60.70898
1194.409, 79.65430
1194.891, 95.41016
1195.373, 105.4355
1195.855, 128.0215
1196.338, 165.1738
1196.820, 169.4473
1197.302, 107.1484
1197.784, 39.62305
1198.266, 46.65820
1198.748, 81.99805
1199.230, 81.99414
1199.712, 32.80078
1200.194, 3.169922
1200.677, 7.683594
1201.159, 0.7089840
1201.641, 32.48047
1202.123, 72.49609
1202.605, 90.38477
1203.087, 101.9434
1203.569, 141.9316
1204.051, 256.8535
1204.534, 247.9434
1205.016, 92.89062
1205.498, 45.59375
1205.980, 29.91406
1206.462, 39.80859
1206.944, 60.63086
1207.426, 45.72266
1207.908, 26.08789
1208.391, 8.814453
1208.873, 3.871094
1209.355, 49.89453
1209.837, 109.1875
1210.319, 153.3477
1210.801, 171.1973
1211.283, 124.8086
1211.765, 36.86328
1212.247, 4.912109
1212.729, 18.93359
1213.212, 39.46484
1213.694, 53.47852
1214.176, 66.02930
1214.658, 91.82812
1215.140, 113.1738
1215.622, 103.4004
1216.104, 67.14062
1216.586, 39.69336
1217.069, 16.55078
1217.551, 34.48438
1218.033, 108.9238
1218.515, 183.5762
1218.997, 193.0117
1219.479, 169.7246
1219.961, 141.5977
1220.443, 113.6934
1220.926, 107.4551
1221.408, 127.6582
1221.890, 152.7949
1222.372, 179.8301
1222.854, 202.8613
1223.336, 224.5156
1223.818, 231.3262
1224.300, 193.5762
1224.782, 107.0039
1225.265, 94.52734
1225.747, 178.5449
1226.229, 225.1191
1226.711, 182.5254
1227.193, 114.5957
1227.675, 79.03711
1228.157, 74.90625
1228.639, 111.6914
1229.121, 195.7383
1229.604, 245.5410
1230.086, 259.2207
1230.568, 252.8418
1231.050, 223.3105
1231.532, 195.9004
1232.014, 210.9062
1232.496, 238.7012
1232.978, 237.3145
1233.461, 197.8711
1233.943, 190.3926
1234.425, 219.8086
1234.907, 240.7012
1235.389, 219.8223
1235.871, 200.1309
1236.353, 242.6152
1236.835, 303.4531
1237.318, 323.5977
1237.800, 299.0117
1238.282, 239.9727
1238.764, 146.2285
1239.246, 87.33594
1239.728, 119.6992
1240.210, 180.2500
1240.692, 239.8457
1241.174, 280.6387
1241.656, 277.4043
1242.139, 225.5078
1242.621, 170.3633
1243.103, 110.8145
1243.585, 86.27734
1244.067, 169.5898
1244.549, 244.1387
1245.031, 202.3926
1245.513, 122.0742
1245.996, 115.1895
1246.478, 192.4023
1246.960, 226.7949
1247.442, 216.5684
1247.924, 202.9961
1248.406, 231.6660
1248.888, 244.2246
1249.370, 174.0312
1249.853, 87.89062
1250.335, 85.16797
1250.817, 160.3477
1251.299, 213.5254
1251.781, 240.9160
1252.263, 222.4141
1252.745, 73.82031
1253.227, 37.74609
1253.709, 20.34961
1254.192, 61.47266
1254.674, 117.3262
1255.156, 146.5527
1255.638, 145.6699
1256.120, 117.0645
1256.602, 101.6250
1257.084, 138.3320
1257.566, 173.6641
1258.048, 186.7363
1258.531, 191.4688
1259.013, 211.3301
1259.495, 238.2969
1259.977, 240.2031
1260.459, 215.6602
1260.941, 190.5469
1261.423, 179.5273
1261.905, 162.7891
1262.388, 121.6543
1262.870, 95.44531
1263.352, 177.2305
1263.834, 306.8809
1264.316, 327.7578
1264.798, 234.5488
1265.280, 157.0273
1265.762, 122.9258
1266.245, 132.7617
1266.727, 205.8203
1267.209, 278.9062
1267.691, 240.5078
1268.173, 155.0508
1268.655, 142.6484
1269.137, 207.2500
1269.619, 217.8125
1270.101, 125.9375
1270.584, 80.67969
1271.066, 124.1250
1271.548, 186.5117
1272.030, 171.7109
1272.512, 130.4688
1272.994, 123.4180
1273.476, 153.9805
1273.958, 180.2891
1274.441, 202.9180
1274.923, 209.0781
1275.405, 193.0977
1275.887, 172.3320
1276.369, 170.7812
1276.851, 168.6562
1277.333, 139.5820
1277.815, 92.48047
1278.297, 54.03516
1278.780, 22.53906
1279.262, 8.734375
1279.744, 16.75391
1280.226, 33.35156
1280.708, 54.19141
1281.190, 73.78906
1281.672, 81.96484
1282.154, 86.92578
1282.636, 133.1055
1283.119, 212.2070
1283.601, 235.7891
1284.083, 177.9102
1284.565, 121.4844
1285.047, 115.8242
1285.529, 126.6836
1286.011, 137.0625
1286.493, 149.6953
1286.976, 182.2109
1287.458, 222.8867
1287.940, 222.6875
1288.422, 164.3047
1288.904, 128.1758
1289.386, 182.9336
1289.868, 209.6133
1290.350, 157.4375
1290.833, 71.75781
1291.315, 33.83984
1291.797, 32.35938
1292.279, 49.23438
1292.761, 83.40234
1293.243, 119.3828
1293.725, 168.3789
1294.207, 181.5312
1294.689, 131.1367
1295.172, 65.80469
1295.654, 62.55859
1296.136, 84.71094
1296.618, 81.94531
1297.100, 44.29688
1297.582, 16.89062
1298.064, 1.226563
1298.546, 3.378906
1299.028, 12.69531
1299.511, 40.86328
1299.993, 64.43359
1300.475, 67.08594
1300.957, 0.0000000E+00
##END=



