##NAMES=Dugganite
##RRUFFID=R060498
##IDEAL CHEMISTRY=Pb^2+^_3_Zn^2+^_3_(Te^6+^O_6_)(As^5+^O_4_)_2_
##LOCALITY=400' level, Empire mine, Tombstone, Cochise County, Arizona, USA
##OWNER=RRUFF
##SOURCE=Michael Scott
##DESCRIPTION=Green colored druse of prismatic crystals
##STATUS=The identification of this mineral has been confirmed by single-crystal X-ray diffraction.
##URL=rruff.info/R060498
137.914, 0.000
138.396, 50.656
138.878, 146.523
139.360, 233.316
139.842, 308.438
140.325, 351.617
140.807, 382.773
141.289, 415.715
141.771, 454.867
142.253, 476.438
142.735, 460.941
143.217, 409.723
143.699, 423.344
144.182, 556.059
144.664, 702.512
145.146, 742.102
145.628, 571.848
146.110, 453.777
146.592, 451.168
147.074, 587.555
147.556, 729.008
148.038, 891.203
148.521, 1050.211
149.003, 1169.211
149.485, 1207.379
149.967, 1243.648
150.449, 1300.723
150.931, 1393.133
151.413, 1477.832
151.895, 1549.203
152.378, 1614.234
152.860, 1686.938
153.342, 1783.703
153.824, 1884.391
154.306, 1980.770
154.788, 2076.902
155.270, 2167.473
155.752, 2254.559
156.234, 2340.434
156.717, 2428.867
157.199, 2529.984
157.681, 2631.133
158.163, 2723.344
158.645, 2776.613
159.127, 2848.160
159.609, 2962.473
160.091, 3114.180
160.574, 3256.406
161.056, 3366.730
161.538, 3457.645
162.020, 3540.223
162.502, 3614.672
162.984, 3676.273
163.466, 3729.703
163.948, 3772.938
164.430, 3802.383
164.913, 3806.484
165.395, 3795.992
165.877, 3785.859
166.359, 3798.824
166.841, 3803.418
167.323, 3789.445
167.805, 3770.852
168.287, 3740.730
168.770, 3655.738
169.252, 3558.832
169.734, 3465.480
170.216, 3385.359
170.698, 3334.238
171.180, 3253.863
171.662, 3137.816
172.144, 3002.129
172.626, 2843.043
173.109, 2667.320
173.591, 2490.703
174.073, 2308.844
174.555, 2134.195
175.037, 1983.766
175.519, 1869.270
176.001, 1762.945
176.483, 1621.430
176.965, 1452.559
177.448, 1308.121
177.930, 1242.676
178.412, 1224.164
178.894, 1193.496
179.376, 1137.840
179.858, 1061.602
180.340, 957.695
180.822, 829.039
181.305, 711.145
181.787, 656.887
182.269, 642.039
182.751, 594.938
183.233, 470.070
183.715, 312.012
184.197, 224.680
184.679, 210.242
185.161, 208.453
185.644, 132.359
186.126, 4.289
186.608, 62.625
187.090, 9.934
187.572, 169.719
188.054, 255.914
188.536, 260.516
189.018, 229.070
189.501, 211.543
189.983, 206.477
190.465, 195.754
190.947, 166.773
191.429, 123.750
191.911, 94.621
192.393, 81.406
192.875, 76.934
193.357, 74.172
193.840, 73.688
194.322, 69.121
194.804, 59.168
195.286, 44.105
195.768, 15.887
196.250, 18.824
196.732, 58.418
197.214, 105.555
197.697, 162.438
198.179, 205.137
198.661, 211.219
199.143, 178.656
199.625, 174.832
200.107, 215.461
200.589, 271.395
201.071, 267.199
201.553, 187.273
202.036, 112.828
202.518, 104.488
203.000, 174.625
203.482, 198.219
203.964, 154.938
204.446, 68.074
204.928, 12.152
205.410, 5.418
205.893, 14.242
206.375, 105.336
206.857, 291.594
207.339, 407.309
207.821, 406.148
208.303, 325.297
208.785, 337.965
209.267, 486.199
209.749, 634.469
210.232, 672.152
210.714, 563.906
211.196, 496.160
211.678, 508.992
212.160, 588.414
212.642, 627.055
213.124, 606.602
213.606, 585.859
214.089, 617.508
214.571, 723.285
215.053, 821.160
215.535, 896.160
216.017, 950.996
216.499, 1015.754
216.981, 1092.445
217.463, 1174.805
217.945, 1257.141
218.428, 1334.430
218.910, 1411.559
219.392, 1484.648
219.874, 1552.773
220.356, 1634.137
220.838, 1739.184
221.320, 1841.074
221.802, 1909.047
222.285, 1926.770
222.767, 1949.082
223.249, 1993.320
223.731, 2062.410
224.213, 2102.480
224.695, 2091.520
225.177, 2078.414
225.659, 2124.797
226.141, 2282.754
226.624, 2399.094
227.106, 2425.191
227.588, 2350.691
228.070, 2323.438
228.552, 2367.207
229.034, 2436.070
229.516, 2470.629
229.998, 2438.051
230.480, 2430.809
230.963, 2482.898
231.445, 2606.336
231.927, 2673.254
232.409, 2658.816
232.891, 2607.684
233.373, 2576.793
233.855, 2583.926
234.337, 2576.941
234.820, 2540.000
235.302, 2467.074
235.784, 2404.855
236.266, 2353.316
236.748, 2319.004
237.230, 2310.824
237.712, 2344.746
238.194, 2365.777
238.676, 2355.340
239.159, 2305.320
239.641, 2275.750
240.123, 2272.855
240.605, 2287.238
241.087, 2308.027
241.569, 2349.273
242.051, 2372.484
242.533, 2362.656
243.016, 2310.883
243.498, 2259.613
243.980, 2191.773
244.462, 2134.410
244.944, 2139.062
245.426, 2242.863
245.908, 2336.504
246.390, 2385.594
246.872, 2382.133
247.355, 2369.465
247.837, 2350.477
248.319, 2317.434
248.801, 2256.973
249.283, 2155.984
249.765, 2047.434
250.247, 1939.500
250.729, 1832.926
251.212, 1727.840
251.694, 1626.223
252.176, 1528.395
252.658, 1434.414
253.140, 1342.602
253.622, 1264.969
254.104, 1212.723
254.586, 1199.191
255.068, 1150.086
255.551, 1050.840
256.033, 931.047
256.515, 835.844
256.997, 772.527
257.479, 727.430
257.961, 699.012
258.443, 692.613
258.925, 668.543
259.408, 623.336
259.890, 569.852
260.372, 522.105
260.854, 472.090
261.336, 426.309
261.818, 381.984
262.300, 333.559
262.782, 336.055
263.264, 396.203
263.746, 492.012
264.229, 599.777
264.711, 739.250
265.193, 834.324
265.675, 847.898
266.157, 767.574
266.639, 721.160
267.121, 719.430
267.603, 738.070
268.086, 742.328
268.568, 725.488
269.050, 718.570
269.532, 737.141
270.014, 783.965
270.496, 814.422
270.978, 826.965
271.460, 826.793
271.943, 812.059
272.425, 773.594
272.907, 764.617
273.389, 817.008
273.871, 930.605
274.353, 988.684
274.835, 970.152
275.317, 939.086
275.799, 983.391
276.282, 1117.250
276.764, 1239.121
277.246, 1313.191
277.728, 1343.102
278.210, 1391.273
278.692, 1463.297
279.174, 1532.973
279.656, 1566.727
280.138, 1561.203
280.621, 1548.844
281.103, 1528.355
281.585, 1505.387
282.067, 1538.055
282.549, 1644.395
283.031, 1735.074
283.513, 1696.613
283.995, 1528.910
284.478, 1381.535
284.960, 1301.133
285.442, 1271.523
285.924, 1238.359
286.406, 1205.961
286.888, 1146.703
287.370, 1002.609
287.852, 785.457
288.335, 633.301
288.817, 611.273
289.299, 663.098
289.781, 620.238
290.263, 477.316
290.745, 329.156
291.227, 271.297
291.709, 286.621
292.191, 289.102
292.674, 260.539
293.156, 205.574
293.638, 118.770
294.120, 1.426
294.602, 101.227
295.084, 141.422
295.566, 135.297
296.048, 132.734
296.530, 142.816
297.013, 160.090
297.495, 178.828
297.977, 197.164
298.459, 209.801
298.941, 212.535
299.423, 204.594
299.905, 185.207
300.387, 150.160
300.870, 107.906
301.352, 75.887
301.834, 48.910
302.316, 3.270
302.798, 74.180
303.280, 177.227
303.762, 305.574
304.244, 465.363
304.727, 620.801
305.209, 725.516
305.691, 790.242
306.173, 852.848
306.655, 904.090
307.137, 973.652
307.619, 1104.445
308.101, 1315.270
308.583, 1529.777
309.065, 1695.129
309.548, 1821.102
310.030, 1922.969
310.512, 1982.031
310.994, 2039.852
311.476, 2133.914
311.958, 2273.293
312.440, 2420.602
312.922, 2562.852
313.405, 2698.996
313.887, 2828.762
314.369, 2946.082
314.851, 3062.055
315.333, 3181.477
315.815, 3304.648
316.297, 3435.090
316.779, 3589.508
317.262, 3745.707
317.744, 3881.668
318.226, 3906.316
318.708, 3984.188
319.190, 4242.910
319.672, 4684.035
320.154, 5006.492
320.636, 5023.117
321.118, 4935.891
321.601, 4911.719
322.083, 5060.051
322.565, 5198.645
323.047, 5276.000
323.529, 5296.723
324.011, 5320.375
324.493, 5384.848
324.975, 5435.691
325.457, 5438.742
325.940, 5283.484
326.422, 5198.531
326.904, 5252.594
327.386, 5412.293
327.868, 5507.547
328.350, 5479.320
328.832, 5429.809
329.314, 5406.523
329.797, 5450.555
330.279, 5460.812
330.761, 5419.074
331.243, 5345.785
331.725, 5293.055
332.207, 5281.656
332.689, 5265.141
333.171, 5221.965
333.654, 5134.777
334.136, 5074.594
334.618, 5047.863
335.100, 5044.699
335.582, 5053.254
336.064, 5085.902
336.546, 5103.023
337.028, 5076.184
337.510, 4993.422
337.992, 4993.832
338.475, 5108.621
338.957, 5260.250
339.439, 5345.715
339.921, 5344.828
340.403, 5370.102
340.885, 5471.668
341.367, 5634.359
341.849, 5703.664
342.332, 5661.156
342.814, 5591.035
343.296, 5580.695
343.778, 5629.406
344.260, 5673.234
344.742, 5693.812
345.224, 5703.609
345.706, 5741.398
346.189, 5811.543
346.671, 5879.051
347.153, 5910.289
347.635, 5915.012
348.117, 5928.730
348.599, 5960.012
349.081, 5997.652
349.563, 6029.461
350.045, 6052.027
350.528, 6049.805
351.010, 5983.699
351.492, 5885.555
351.974, 5822.656
352.456, 5808.957
352.938, 5801.652
353.420, 5758.613
353.902, 5684.426
354.384, 5593.121
354.867, 5494.949
355.349, 5382.012
355.831, 5246.172
356.313, 5087.836
356.795, 4914.855
357.277, 4732.023
357.759, 4542.031
358.241, 4349.211
358.724, 4158.270
359.206, 3967.438
359.688, 3775.414
360.170, 3584.062
360.652, 3398.465
361.134, 3209.043
361.616, 3029.359
362.098, 2870.582
362.581, 2749.809
363.063, 2634.348
363.545, 2520.664
364.027, 2405.156
364.509, 2273.355
364.991, 2109.777
365.473, 1934.539
365.955, 1758.523
366.437, 1563.934
366.919, 1395.020
367.402, 1256.059
367.884, 1145.941
368.366, 1061.562
368.848, 1047.160
369.330, 1020.312
369.812, 949.930
370.294, 808.992
370.776, 705.285
371.259, 652.668
371.741, 629.832
372.223, 614.977
372.705, 641.277
373.187, 613.094
373.669, 473.387
374.151, 213.359
374.633, 94.316
375.116, 165.395
375.598, 294.270
376.080, 355.340
376.562, 335.352
377.044, 304.758
377.526, 272.277
378.008, 238.285
378.490, 208.164
378.973, 184.070
379.455, 153.902
379.937, 110.727
380.419, 55.527
380.901, 13.062
381.383, 99.496
381.865, 185.965
382.347, 241.008
382.829, 264.504
383.311, 269.906
383.794, 256.375
384.276, 228.906
384.758, 205.312
385.240, 189.316
385.722, 157.453
386.204, 69.832
386.686, 52.883
387.168, 163.270
387.651, 254.211
388.133, 313.488
388.615, 301.367
389.097, 222.207
389.579, 168.090
390.061, 231.406
390.543, 340.883
391.025, 416.617
391.508, 410.098
391.990, 394.723
392.472, 419.945
392.954, 473.465
393.436, 510.414
393.918, 500.562
394.400, 480.168
394.882, 475.555
395.364, 505.949
395.847, 521.414
396.329, 495.207
396.811, 451.617
397.293, 429.398
397.775, 439.848
398.257, 468.332
398.739, 514.004
399.221, 580.133
399.703, 640.672
400.186, 692.309
400.668, 737.332
401.150, 775.336
401.632, 784.348
402.114, 821.160
402.596, 902.383
403.078, 1020.320
403.560, 1123.590
404.043, 1216.430
404.525, 1288.980
405.007, 1329.855
405.489, 1330.223
405.971, 1351.855
406.453, 1410.906
406.935, 1479.652
407.417, 1491.332
407.900, 1438.242
408.382, 1403.500
408.864, 1434.012
409.346, 1520.668
409.828, 1597.996
410.310, 1667.238
410.792, 1722.652
411.274, 1752.723
411.756, 1762.352
412.238, 1773.965
412.721, 1794.102
413.203, 1821.297
413.685, 1846.578
414.167, 1872.703
414.649, 1923.180
415.131, 2050.816
415.613, 2201.703
416.095, 2293.832
416.578, 2292.617
417.060, 2274.133
417.542, 2303.535
418.024, 2358.176
418.506, 2388.016
418.988, 2338.082
419.470, 2278.852
419.952, 2250.320
420.435, 2257.395
420.917, 2283.164
421.399, 2328.566
421.881, 2387.953
422.363, 2455.988
422.845, 2588.152
423.327, 2672.031
423.809, 2648.914
424.291, 2532.469
424.774, 2479.195
425.256, 2550.008
425.738, 2643.215
426.220, 2708.879
426.702, 2720.211
427.184, 2756.039
427.666, 2836.801
428.148, 2934.672
428.630, 2982.785
429.113, 2949.473
429.595, 2940.223
430.077, 2998.543
430.559, 3124.352
431.041, 3252.242
431.523, 3392.375
432.005, 3507.797
432.487, 3539.703
432.970, 3488.836
433.452, 3464.773
433.934, 3500.766
434.416, 3572.141
434.898, 3640.836
435.380, 3706.070
435.862, 3730.938
436.344, 3652.039
436.827, 3519.602
437.309, 3444.820
437.791, 3449.852
438.273, 3491.406
438.755, 3538.703
439.237, 3587.891
439.719, 3632.820
440.201, 3681.172
440.683, 3719.258
441.165, 3719.891
441.648, 3682.625
442.130, 3674.008
442.612, 3762.375
443.094, 3875.852
443.576, 3957.914
444.058, 3983.930
444.540, 3986.383
445.022, 3921.266
445.505, 3828.062
445.987, 3828.672
446.469, 4070.117
446.951, 4295.172
447.433, 4392.039
447.915, 4299.039
448.397, 4261.719
448.879, 4319.203
449.362, 4411.211
449.844, 4461.438
450.326, 4454.281
450.808, 4440.625
451.290, 4422.125
451.772, 4403.727
452.254, 4420.375
452.736, 4475.523
453.218, 4550.211
453.701, 4636.734
454.183, 4732.328
454.665, 4825.281
455.147, 4915.438
455.629, 4995.086
456.111, 5036.852
456.593, 5047.477
457.075, 5081.352
457.557, 5184.523
458.040, 5321.969
458.522, 5426.859
459.004, 5500.805
459.486, 5570.023
459.968, 5670.969
460.450, 5777.547
460.932, 5847.969
461.414, 5856.898
461.897, 5852.617
462.379, 5855.695
462.861, 5870.156
463.343, 5905.273
463.825, 5990.391
464.307, 6077.812
464.789, 6147.727
465.271, 6203.258
465.754, 6221.828
466.236, 6166.258
466.718, 6086.586
467.200, 6033.281
467.682, 6056.320
468.164, 6047.742
468.646, 5972.969
469.128, 5847.844
469.610, 5782.570
470.093, 5818.930
470.575, 5846.648
471.057, 5807.789
471.539, 5692.164
472.021, 5541.961
472.503, 5333.352
472.985, 5125.266
473.467, 5039.539
473.949, 5080.516
474.432, 5046.133
474.914, 4845.219
475.396, 4532.773
475.878, 4257.133
476.360, 4018.555
476.842, 3788.852
477.324, 3541.836
477.806, 3293.305
478.289, 3081.523
478.771, 2927.883
479.253, 2775.234
479.735, 2557.703
480.217, 2305.469
480.699, 2078.359
481.181, 1903.156
481.663, 1763.258
482.146, 1645.984
482.628, 1550.219
483.110, 1479.109
483.592, 1453.641
484.074, 1437.609
484.556, 1403.453
485.038, 1320.234
485.520, 1244.812
486.002, 1165.867
486.484, 1094.391
486.967, 1061.812
487.449, 1118.852
487.931, 1137.109
488.413, 1061.828
488.895, 883.539
489.377, 758.352
489.859, 707.203
490.341, 676.867
490.824, 617.242
491.306, 528.750
491.788, 453.805
492.270, 408.195
492.752, 373.180
493.234, 302.164
493.716, 200.672
494.198, 107.375
494.681, 44.883
495.163, 4.805
495.645, 23.945
496.127, 42.414
496.609, 62.297
497.091, 96.656
497.573, 139.062
498.055, 183.312
498.537, 255.023
499.020, 293.023
499.502, 223.648
499.984, 89.422
500.466, 8.531
500.948, 79.148
501.430, 162.391
501.912, 188.641
502.394, 130.055
502.876, 104.328
503.359, 151.578
503.841, 214.344
504.323, 246.820
504.805, 254.695
505.287, 219.047
505.769, 122.875
506.251, 12.484
506.733, 123.102
507.216, 210.461
507.698, 264.992
508.180, 265.008
508.662, 214.109
509.144, 195.375
509.626, 209.453
510.108, 249.859
510.590, 340.180
511.073, 457.500
511.555, 513.227
512.037, 455.219
512.519, 369.281
513.001, 369.477
513.483, 434.578
513.965, 491.477
514.447, 462.008
514.929, 434.938
515.412, 492.023
515.894, 649.469
516.376, 802.359
516.858, 914.484
517.340, 995.453
517.822, 1053.227
518.304, 1039.055
518.786, 1057.109
519.268, 1142.117
519.751, 1269.500
520.233, 1370.609
520.715, 1424.383
521.197, 1482.734
521.679, 1573.188
522.161, 1706.211
522.643, 1797.477
523.125, 1833.297
523.607, 1837.172
524.090, 1825.719
524.572, 1801.203
525.054, 1817.336
525.536, 1899.055
526.018, 2000.312
526.500, 2017.180
526.982, 1968.625
527.464, 1952.477
527.947, 2061.805
528.429, 2218.594
528.911, 2317.852
529.393, 2350.562
529.875, 2351.031
530.357, 2312.938
530.839, 2262.797
531.321, 2227.945
531.804, 2225.078
532.286, 2219.547
532.768, 2208.938
533.250, 2187.281
533.732, 2142.742
534.214, 1963.594
534.696, 1881.961
535.178, 2012.023
535.661, 2360.188
536.143, 2525.766
536.625, 2437.500
537.107, 2281.078
537.589, 2166.672
538.071, 2094.297
538.553, 2088.047
539.035, 2176.016
539.517, 2279.836
540.000, 2241.727
540.482, 2078.414
540.964, 1973.766
541.446, 2031.414
541.928, 2163.867
542.410, 2206.820
542.892, 2170.516
543.374, 2138.852
543.856, 2174.461
544.339, 2238.617
544.821, 2297.000
545.303, 2347.984
545.785, 2371.781
546.267, 2320.422
546.749, 2249.602
547.231, 2226.227
547.713, 2335.742
548.195, 2417.633
548.678, 2429.648
549.160, 2385.477
549.642, 2345.531
550.124, 2322.945
550.606, 2288.539
551.088, 2221.867
551.570, 2114.344
552.052, 2058.039
552.534, 2067.383
553.017, 2092.797
553.499, 2096.094
553.981, 2076.695
554.463, 2006.477
554.945, 1864.391
555.427, 1696.414
555.909, 1565.688
556.391, 1469.953
556.874, 1410.914
557.356, 1438.242
557.838, 1485.625
558.320, 1471.305
558.802, 1389.516
559.284, 1299.133
559.766, 1230.570
560.248, 1178.758
560.731, 1133.039
561.213, 1077.688
561.695, 1045.070
562.177, 1076.422
562.659, 1127.328
563.141, 1130.078
563.623, 1048.281
564.105, 982.453
564.588, 944.766
565.070, 928.602
565.552, 908.797
566.034, 880.398
566.516, 861.242
566.998, 873.586
567.480, 911.625
567.962, 901.602
568.444, 834.664
568.927, 767.820
569.409, 781.242
569.891, 842.531
570.373, 871.961
570.855, 846.875
571.337, 787.141
571.819, 679.695
572.301, 550.781
572.783, 459.688
573.266, 493.234
573.748, 519.180
574.230, 451.859
574.712, 285.266
575.194, 163.398
575.676, 136.242
576.158, 143.953
576.640, 161.898
577.122, 201.516
577.605, 213.109
578.087, 194.070
578.569, 149.844
579.051, 69.938
579.533, 54.672
580.015, 115.969
580.497, 64.055
580.979, 47.375
581.461, 85.680
581.944, 57.656
582.426, 20.992
582.908, 1.930
583.390, 8.875
583.872, 15.766
584.354, 72.938
584.836, 110.969
585.318, 29.219
585.801, 55.242
586.283, 18.734
586.765, 282.148
587.247, 506.297
587.729, 513.812
588.211, 401.406
588.693, 348.719
589.175, 399.430
589.657, 451.117
590.140, 475.641
590.622, 477.367
591.104, 510.742
591.586, 594.766
592.068, 675.219
592.550, 722.367
593.032, 737.445
593.515, 720.742
593.997, 667.625
594.479, 621.750
594.961, 636.578
595.443, 692.742
595.925, 750.656
596.407, 808.773
596.889, 849.445
597.371, 851.062
597.854, 826.320
598.336, 800.859
598.818, 771.781
599.300, 756.812
599.782, 779.141
600.264, 836.508
600.746, 852.844
601.228, 798.203
601.710, 727.555
602.193, 661.938
602.675, 596.570
603.157, 554.023
603.639, 538.664
604.121, 536.117
604.603, 539.445
605.085, 547.328
605.567, 522.445
606.049, 442.289
606.532, 354.969
607.014, 357.508
607.496, 422.414
607.978, 460.148
608.460, 395.305
608.942, 305.602
609.424, 245.383
609.906, 216.344
610.388, 219.906
610.871, 284.602
611.353, 360.312
611.835, 422.383
612.317, 479.203
612.799, 488.570
613.281, 424.422
613.763, 333.930
614.245, 260.188
614.728, 207.258
615.210, 163.914
615.692, 130.438
616.174, 107.086
616.656, 94.805
617.138, 94.219
617.620, 101.367
618.102, 114.984
618.584, 136.219
619.067, 170.383
619.549, 215.695
620.031, 259.773
620.513, 302.070
620.995, 333.992
621.477, 333.453
621.959, 287.344
622.442, 279.727
622.924, 381.266
623.406, 507.711
623.888, 587.406
624.370, 585.914
624.852, 576.672
625.334, 556.523
625.816, 530.805
626.298, 514.383
626.781, 514.625
627.263, 484.781
627.745, 394.688
628.227, 277.914
628.709, 245.664
629.191, 292.203
629.673, 330.953
630.155, 304.375
630.638, 240.320
631.120, 168.562
631.602, 91.727
632.084, 31.523
632.566, 25.859
633.048, 29.656
633.530, 2.227
634.012, 115.211
634.494, 181.500
634.977, 136.508
635.459, 49.414
635.941, 3.305
636.423, 18.711
636.905, 36.812
637.387, 58.969
637.869, 79.250
638.351, 66.141
638.833, 15.336
639.316, 12.609
639.798, 26.359
640.280, 102.898
640.762, 140.555
641.244, 141.773
641.726, 137.297
642.208, 141.016
642.690, 154.578
643.172, 191.172
643.655, 262.633
644.137, 296.891
644.619, 210.805
645.101, 101.711
645.583, 50.719
646.065, 135.172
646.547, 184.750
647.029, 199.195
647.511, 175.227
647.994, 106.203
648.476, 9.438
648.958, 162.789
649.440, 368.273
649.922, 588.359
650.404, 711.938
650.886, 742.414
651.369, 738.703
651.851, 692.398
652.333, 649.508
652.815, 683.539
653.297, 791.711
653.779, 904.758
654.261, 1024.891
654.743, 1109.375
655.225, 1114.586
655.708, 999.562
656.190, 916.211
656.672, 898.766
657.154, 914.227
657.636, 939.891
658.118, 988.695
658.600, 1006.758
659.082, 970.266
659.565, 925.859
660.047, 980.836
660.529, 1128.711
661.011, 1236.266
661.493, 1245.414
661.975, 1202.695
662.457, 1151.688
662.939, 1105.273
663.421, 1113.031
663.904, 1290.883
664.386, 1466.984
664.868, 1493.133
665.350, 1365.898
665.832, 1294.492
666.314, 1376.609
666.796, 1494.656
667.278, 1582.898
667.760, 1627.555
668.243, 1687.820
668.725, 1763.258
669.207, 1846.992
669.689, 1928.102
670.171, 2003.844
670.653, 2083.328
671.135, 2160.602
671.617, 2250.648
672.099, 2400.977
672.582, 2580.203
673.064, 2711.062
673.546, 2725.922
674.028, 2722.961
674.510, 2786.914
674.992, 2891.438
675.474, 2954.844
675.956, 2919.133
676.439, 2882.758
676.921, 2883.414
677.403, 2922.227
677.885, 2969.047
678.367, 3028.867
678.849, 3093.258
679.331, 3152.055
679.813, 3206.633
680.295, 3281.000
680.778, 3373.250
681.260, 3493.953
681.742, 3670.094
682.224, 3874.422
682.706, 4045.984
683.188, 4167.883
683.670, 4280.562
684.153, 4383.039
684.635, 4503.617
685.117, 4674.625
685.599, 5000.500
686.081, 5263.367
686.563, 5373.805
687.045, 5415.570
687.527, 5546.328
688.009, 5824.258
688.492, 6050.102
688.974, 6162.289
689.456, 6199.586
689.938, 6273.586
690.420, 6386.438
690.902, 6534.656
691.384, 6741.211
691.866, 6962.664
692.348, 7130.156
692.831, 7254.547
693.313, 7396.883
693.795, 7608.516
694.277, 7826.328
694.759, 7998.156
695.241, 8101.648
695.723, 8236.289
696.205, 8456.094
696.688, 8685.555
697.170, 8869.844
697.652, 8987.516
698.134, 9114.633
698.616, 9260.586
699.098, 9415.414
699.580, 9564.234
700.062, 9708.938
700.544, 9849.930
701.027, 9987.156
701.509, 10121.352
701.991, 10253.875
702.473, 10396.195
702.955, 10554.883
703.437, 10708.578
703.919, 10890.398
704.401, 11115.953
704.883, 11389.414
705.366, 11712.398
705.848, 12109.188
706.330, 12522.828
706.812, 12932.070
707.294, 13333.523
707.776, 13745.453
708.258, 14162.141
708.740, 14581.906
709.222, 14993.336
709.705, 15416.109
710.187, 15883.242
710.669, 16386.836
711.151, 16947.961
711.633, 17644.578
712.115, 18384.320
712.597, 19070.258
713.080, 19663.820
713.562, 20312.055
714.044, 21067.078
714.526, 21899.641
715.008, 22784.820
715.490, 23758.273
715.972, 24716.508
716.454, 25657.016
716.936, 26592.711
717.419, 27519.328
717.901, 28446.094
718.383, 29408.523
718.865, 30427.367
719.347, 31445.359
719.829, 32419.047
720.311, 33339.141
720.793, 34209.680
721.276, 35024.156
721.758, 35781.867
722.240, 36484.281
722.722, 37133.078
723.204, 37738.961
723.686, 38393.617
724.168, 38885.633
724.650, 39157.445
725.132, 39221.641
725.615, 39183.508
726.097, 39047.062
726.579, 38777.805
727.061, 38336.023
727.543, 37749.234
728.025, 37084.508
728.507, 36343.594
728.989, 35523.539
729.471, 34617.875
729.954, 33635.992
730.436, 32573.500
730.918, 31423.000
731.400, 30259.906
731.882, 29133.789
732.364, 27986.664
732.846, 26755.359
733.328, 25359.836
733.810, 24120.617
734.293, 23068.500
734.775, 22092.773
735.257, 21068.398
735.739, 20004.367
736.221, 18983.914
736.703, 18024.656
737.185, 17084.867
737.667, 16107.820
738.149, 15130.172
738.632, 14220.047
739.114, 13417.266
739.596, 12661.906
740.078, 11962.234
740.560, 11291.914
741.042, 10590.078
741.524, 9778.914
742.006, 9083.727
742.489, 8557.844
742.971, 8156.594
743.453, 7763.961
743.935, 7379.102
744.417, 7023.805
744.899, 6724.164
745.381, 6444.117
745.863, 6102.695
746.346, 5715.016
746.828, 5358.336
747.310, 5072.438
747.792, 4820.672
748.274, 4590.734
748.756, 4378.969
749.238, 4154.711
749.720, 3898.102
750.203, 3646.617
750.685, 3418.516
751.167, 3217.398
751.649, 2994.594
752.131, 2749.984
752.613, 2504.070
753.095, 2270.273
753.577, 2050.664
754.059, 1832.078
754.542, 1616.711
755.024, 1445.422
755.506, 1372.148
755.988, 1340.578
756.470, 1306.867
756.952, 1267.750
757.434, 1200.555
757.916, 1051.211
758.398, 905.492
758.881, 840.047
759.363, 898.922
759.845, 835.273
760.327, 610.625
760.809, 343.656
761.291, 171.984
761.773, 74.094
762.255, 24.070
762.737, 138.492
763.220, 236.680
763.702, 272.250
764.184, 275.891
764.666, 289.914
765.148, 353.367
765.630, 389.336
766.112, 343.875
766.594, 282.969
767.076, 326.734
767.559, 548.109
768.041, 614.078
768.523, 417.250
769.005, 114.773
769.487, 21.680
769.969, 98.586
770.451, 154.742
770.933, 107.109
771.416, 25.023
771.898, 52.617
772.380, 115.742
772.862, 141.828
773.344, 99.633
773.826, 46.938
774.308, 2.570
774.790, 36.703
775.273, 91.594
775.755, 170.945
776.237, 224.945
776.719, 227.078
777.201, 192.992
777.683, 176.617
778.165, 171.633
778.647, 143.781
779.130, 49.867
779.612, 59.969
780.094, 126.203
780.576, 158.656
781.058, 230.391
781.540, 396.883
782.022, 572.453
782.504, 729.914
782.986, 868.195
783.469, 965.594
783.951, 1000.797
784.433, 1064.617
784.915, 1244.477
785.397, 1496.828
785.879, 1649.219
786.361, 1706.648
786.843, 1770.656
787.325, 1904.289
787.808, 2086.680
788.290, 2310.289
788.772, 2580.414
789.254, 2841.094
789.736, 3078.430
790.218, 3308.727
790.700, 3534.906
791.182, 3753.844
791.664, 3982.391
792.147, 4215.047
792.629, 4483.062
793.111, 4837.031
793.593, 5245.273
794.075, 5605.492
794.557, 5906.242
795.039, 6196.367
795.521, 6490.969
796.003, 6805.945
796.486, 7157.906
796.968, 7560.344
797.450, 7977.633
797.932, 8426.484
798.414, 8873.148
798.896, 9274.758
799.378, 9621.867
799.860, 10020.633
800.343, 10481.891
800.825, 10962.516
801.307, 11401.758
801.789, 11829.789
802.271, 12307.836
802.753, 12846.875
803.235, 13434.688
803.717, 14081.430
804.200, 14759.555
804.682, 15449.609
805.164, 16121.234
805.646, 16846.102
806.128, 17644.664
806.610, 18471.312
807.092, 19284.602
807.574, 20084.297
808.057, 20905.492
808.539, 21747.320
809.021, 22637.273
809.503, 23647.062
809.985, 24713.062
810.467, 25739.898
810.949, 26674.852
811.431, 27642.242
811.913, 28695.250
812.396, 29806.898
812.878, 30950.141
813.360, 32148.328
813.842, 33321.234
814.324, 34466.867
814.806, 35596.602
815.288, 36751.383
815.770, 37923.586
816.252, 39064.297
816.735, 40164.617
817.217, 41242.492
817.699, 42349.852
818.181, 43437.148
818.663, 44430.969
819.145, 45311.719
819.627, 46099.461
820.109, 46756.750
820.591, 47352.047
821.074, 47981.023
821.556, 48693.609
822.038, 49235.141
822.520, 49556.594
823.002, 49728.734
823.484, 49845.359
823.966, 49901.086
824.448, 49874.711
824.930, 49763.078
825.413, 49530.359
825.895, 49190.812
826.377, 48732.945
826.859, 48126.234
827.341, 47166.188
827.823, 46293.148
828.305, 45574.305
828.787, 44909.500
829.270, 44177.547
829.752, 43378.891
830.234, 42438.086
830.716, 41330.203
831.198, 40142.945
831.680, 38971.422
832.162, 37816.797
832.644, 36680.273
833.127, 35560.188
833.609, 34468.477
834.091, 33405.516
834.573, 32374.836
835.055, 31368.250
835.537, 30360.969
836.019, 29421.539
836.501, 28559.570
836.984, 27767.086
837.466, 27003.789
837.948, 26273.031
838.430, 25583.898
838.912, 24934.797
839.394, 24339.922
839.876, 23803.656
840.358, 23325.945
840.841, 22896.844
841.323, 22555.875
841.805, 22203.023
842.287, 21815.398
842.769, 21429.203
843.251, 21085.914
843.733, 20784.961
844.215, 20516.625
844.697, 20280.609
845.180, 20060.430
845.662, 19873.359
846.144, 19677.711
846.626, 19387.477
847.108, 18921.195
847.590, 18520.398
848.072, 18363.469
848.554, 18274.367
849.036, 18077.250
849.519, 17748.547
850.001, 17361.469
850.483, 16908.750
850.965, 16428.227
851.447, 15966.477
851.929, 15519.648
852.411, 15083.422
852.893, 14669.547
853.375, 14242.742
853.858, 13761.039
854.340, 13247.547
854.822, 12724.938
855.304, 12184.320
855.786, 11680.867
856.268, 11243.539
856.750, 10825.516
857.232, 10377.188
857.714, 9883.789
858.197, 9416.922
858.679, 8984.641
859.161, 8623.719
859.643, 8425.352
860.125, 8285.398
860.607, 8068.750
861.089, 7751.219
861.571, 7393.453
862.054, 6961.852
862.536, 6552.711
863.018, 6238.078
863.500, 6023.148
863.982, 5712.234
864.464, 5286.203
864.946, 4889.039
865.428, 4670.617
865.911, 4560.875
866.393, 4365.555
866.875, 4077.859
867.357, 3799.320
867.839, 3607.336
868.321, 3434.047
868.803, 3238.195
869.285, 3014.305
869.768, 2764.727
870.250, 2463.281
870.732, 2192.133
871.214, 2006.867
871.696, 1894.695
872.178, 1771.531
872.660, 1639.047
873.142, 1503.891
873.624, 1354.047
874.107, 1217.102
874.589, 1118.086
875.071, 1054.891
875.553, 994.398
876.035, 895.383
876.517, 836.758
876.999, 868.891
877.481, 961.141
877.963, 913.961
878.446, 721.031
878.928, 570.047
879.410, 594.398
879.892, 687.555
880.374, 719.758
880.856, 697.648
881.338, 641.852
881.820, 508.195
882.302, 403.883
882.785, 379.273
883.267, 410.172
883.749, 434.469
884.231, 453.078
884.713, 459.516
885.195, 444.062
885.677, 426.617
886.159, 473.070
886.641, 546.867
887.124, 550.992
887.606, 346.805
888.088, 188.586
888.570, 250.656
889.052, 414.547
889.534, 460.328
890.016, 327.898
890.498, 224.062
890.981, 169.930
891.463, 161.188
891.945, 225.086
892.427, 332.633
892.909, 368.812
893.391, 282.180
893.873, 204.148
894.355, 238.320
894.838, 321.758
895.320, 387.539
895.802, 421.766
896.284, 430.258
896.766, 389.250
897.248, 354.500
897.730, 403.906
898.212, 517.055
898.695, 542.836
899.177, 465.703
899.659, 372.117
900.141, 347.094
900.623, 336.461
901.105, 280.344
901.587, 160.594
902.069, 90.758
902.551, 136.117
903.034, 165.305
903.516, 93.000
903.998, 70.859
904.480, 181.234
904.962, 238.695
905.444, 249.922
905.926, 199.648
906.408, 122.086
906.890, 35.102
907.373, 52.609
907.855, 93.945
908.337, 17.023
908.819, 42.141
909.301, 24.227
909.783, 39.281
910.265, 14.930
910.747, 187.023
911.229, 303.773
911.712, 284.000
912.194, 194.367
912.676, 72.328
913.158, 51.414
913.640, 102.922
914.122, 61.742
914.604, 160.375
915.086, 76.820
915.568, 76.188
916.051, 100.562
916.533, 9.812
917.015, 83.789
917.497, 95.195
917.979, 80.445
918.461, 76.492
918.943, 87.336
919.425, 147.312
919.908, 317.898
920.390, 385.945
920.872, 183.734
921.354, 75.141
921.836, 215.727
922.318, 209.875
922.800, 244.703
923.282, 329.742
923.765, 412.734
924.247, 419.719
924.729, 402.430
925.211, 457.594
925.693, 592.320
926.175, 698.828
926.657, 686.578
927.139, 673.625
927.622, 729.320
928.104, 849.797
928.586, 920.336
929.068, 934.062
929.550, 949.094
930.032, 999.836
930.514, 1073.367
930.996, 1161.766
931.478, 1261.016
931.961, 1335.852
932.443, 1392.078
932.925, 1407.328
933.407, 1326.477
933.889, 1214.383
934.371, 1222.602
934.853, 1365.445
935.335, 1524.641
935.817, 1675.156
936.300, 1825.656
936.782, 1995.258
937.264, 2175.836
937.746, 2351.234
938.228, 2524.961
938.710, 2667.898
939.192, 2737.820
939.674, 2795.359
940.156, 2899.578
940.639, 3055.477
941.121, 3218.273
941.603, 3391.023
942.085, 3551.445
942.567, 3658.008
943.049, 3747.164
943.531, 3884.391
944.013, 4078.680
944.495, 4251.664
944.978, 4356.438
945.460, 4447.602
945.942, 4539.430
946.424, 4635.914
946.906, 4809.859
947.388, 5071.609
947.870, 5296.383
948.352, 5383.227
948.835, 5417.719
949.317, 5545.688
949.799, 5727.797
950.281, 5845.516
950.763, 5810.258
951.245, 5757.664
951.727, 5711.484
952.209, 5675.031
952.692, 5668.336
953.174, 5693.227
953.656, 5668.031
954.138, 5570.734
954.620, 5428.625
955.102, 5268.305
955.584, 5084.211
956.066, 4867.289
956.549, 4602.648
957.031, 4333.602
957.513, 4068.742
957.995, 3796.797
958.477, 3502.219
958.959, 3184.305
959.441, 2890.180
959.923, 2623.047
960.405, 2391.727
960.888, 2236.156
961.370, 2092.312
961.852, 1869.352
962.334, 1568.836
962.816, 1343.500
963.298, 1277.273
963.780, 1217.859
964.262, 1115.688
964.744, 989.141
965.227, 901.891
965.709, 846.273
966.191, 785.984
966.673, 716.867
967.155, 618.219
967.637, 405.180
968.119, 164.297
968.601, 42.688
969.083, 187.773
969.566, 250.008
970.048, 190.414
970.530, 92.805
971.012, 43.367
971.494, 33.617
971.976, 71.531
972.458, 167.297
972.940, 210.836
973.422, 15.773
973.905, 190.180
974.387, 193.156
974.869, 46.141
975.351, 141.617
975.833, 40.195
976.315, 35.969
976.797, 65.703
977.279, 253.305
977.762, 290.203
978.244, 208.500
978.726, 125.867
979.208, 67.984
979.690, 35.969
980.172, 33.531
980.654, 57.648
981.136, 115.664
981.619, 221.789
982.101, 274.000
982.583, 245.648
983.065, 189.242
983.547, 167.500
984.029, 164.617
984.511, 153.688
984.993, 125.609
985.476, 108.398
985.958, 120.820
986.440, 140.922
986.922, 166.883
987.404, 199.961
987.886, 154.453
988.368, 28.273
988.850, 68.430
989.332, 20.695
989.815, 59.891
990.297, 44.297
990.779, 43.766
991.261, 89.859
991.743, 49.148
992.225, 8.242
992.707, 89.461
993.189, 160.453
993.672, 130.797
994.154, 23.359
994.636, 46.828
995.118, 43.031
995.600, 19.281
996.082, 1.305
996.564, 8.750
997.046, 2.180
997.528, 41.008
998.011, 25.219
998.493, 67.039
998.975, 160.992
999.457, 198.594
999.939, 195.250
1000.421, 170.969
1000.903, 133.109
1001.385, 131.164
1001.867, 238.938
1002.350, 332.680
1002.832, 341.438
1003.314, 300.812
1003.796, 321.922
1004.278, 414.414
1004.760, 446.023
1005.242, 362.992
1005.724, 255.273
1006.207, 222.555
1006.689, 243.500
1007.171, 295.031
1007.653, 408.211
1008.135, 465.078
1008.617, 445.898
1009.099, 382.742
1009.581, 270.820
1010.063, 122.938
1010.546, 86.922
1011.028, 159.852
1011.510, 237.477
1011.992, 232.000
1012.474, 221.914
1012.956, 289.961
1013.438, 409.156
1013.920, 435.914
1014.403, 330.391
1014.885, 223.398
1015.367, 130.938
1015.849, 75.508
1016.331, 146.383
1016.813, 277.727
1017.295, 303.242
1017.777, 132.258
1018.259, 4.391
1018.742, 19.867
1019.224, 91.266
1019.706, 127.586
1020.188, 126.773
1020.670, 119.469
1021.152, 105.195
1021.634, 109.031
1022.116, 176.836
1022.599, 251.367
1023.081, 246.430
1023.563, 186.156
1024.045, 186.219
1024.527, 330.242
1025.009, 438.055
1025.491, 467.438
1025.973, 451.430
1026.455, 451.477
1026.938, 470.750
1027.420, 488.023
1027.902, 496.398
1028.384, 501.219
1028.866, 502.398
1029.348, 505.875
1029.830, 520.836
1030.312, 550.930
1030.794, 569.797
1031.277, 571.516
1031.759, 561.453
1032.241, 575.414
1032.723, 605.484
1033.205, 600.641
1033.687, 564.883
1034.169, 518.180
1034.651, 394.469
1035.134, 391.477
1035.616, 594.695
1036.098, 869.461
1036.580, 996.938
1037.062, 991.727
1037.544, 986.562
1038.026, 997.297
1038.508, 1035.180
1038.990, 1122.805
1039.473, 1227.586
1039.955, 1323.789
1040.437, 1408.555
1040.919, 1467.156
1041.401, 1487.305
1041.883, 1531.094
1042.365, 1654.602
1042.847, 1796.508
1043.329, 1815.711
1043.812, 1760.031
1044.294, 1744.219
1044.776, 1871.516
1045.258, 1971.594
1045.740, 2014.297
1046.222, 2016.797
1046.704, 1960.180
1047.186, 1860.156
1047.669, 1925.641
1048.151, 2174.852
1048.633, 2413.492
1049.115, 2461.461
1049.597, 2468.641
1050.079, 2547.773
1050.561, 2702.875
1051.043, 2879.500
1051.526, 3112.883
1052.008, 3233.656
1052.490, 3133.359
1052.972, 2978.391
1053.454, 3110.969
1053.936, 3404.789
1054.418, 3596.133
1054.900, 3569.164
1055.382, 3512.875
1055.865, 3440.469
1056.347, 3395.125
1056.829, 3418.250
1057.311, 3506.328
1057.793, 3566.336
1058.275, 3598.211
1058.757, 3598.039
1059.239, 3531.164
1059.721, 3462.219
1060.204, 3477.703
1060.686, 3531.664
1061.168, 3455.477
1061.650, 3198.344
1062.132, 2985.422
1062.614, 2866.570
1063.096, 2775.570
1063.578, 2606.086
1064.061, 2411.609
1064.543, 2298.219
1065.025, 2294.258
1065.507, 2282.031
1065.989, 2223.922
1066.471, 2142.805
1066.953, 2050.102
1067.435, 1952.055
1067.917, 1878.961
1068.400, 1824.609
1068.882, 1761.844
1069.364, 1659.430
1069.846, 1573.938
1070.328, 1554.906
1070.810, 1566.180
1071.292, 1551.641
1071.774, 1497.344
1072.256, 1461.891
1072.739, 1446.609
1073.221, 1444.258
1073.703, 1459.195
1074.185, 1475.016
1074.667, 1482.961
1075.149, 1475.531
1075.631, 1405.641
1076.114, 1178.117
1076.596, 1022.039
1077.078, 1020.203
1077.560, 1080.727
1078.042, 1010.914
1078.524, 839.977
1079.006, 662.031
1079.488, 487.039
1079.970, 357.812
1080.453, 346.000
1080.935, 350.609
1081.417, 285.797
1081.899, 151.031
1082.381, 93.539
1082.863, 114.141
1083.345, 160.406
1083.827, 218.219
1084.309, 271.227
1084.792, 295.164
1085.274, 301.891
1085.756, 317.492
1086.238, 346.805
1086.720, 375.172
1087.202, 401.656
1087.684, 421.758
1088.166, 444.203
1088.649, 452.016
1089.131, 393.383
1089.613, 271.008
1090.095, 184.945
1090.577, 202.430
1091.059, 238.422
1091.541, 277.305
1092.023, 303.914
1092.505, 265.430
1092.988, 178.906
1093.470, 160.906
1093.952, 265.383
1094.434, 358.820
1094.916, 310.516
1095.398, 238.906
1095.880, 258.719
1096.362, 378.664
1096.844, 447.125
1097.327, 460.336
1097.809, 446.594
1098.291, 404.914
1098.773, 359.180
1099.255, 319.562
1099.737, 299.086
1100.219, 330.477
1100.701, 513.086
1101.184, 563.336
1101.666, 419.039
1102.148, 262.086
1102.630, 319.164
1103.112, 491.727
1103.594, 551.305
1104.076, 491.070
1104.558, 418.523
1105.041, 343.852
1105.523, 308.180
1106.005, 336.555
1106.487, 397.641
1106.969, 417.055
1107.451, 399.719
1107.933, 378.336
1108.415, 357.914
1108.897, 343.633
1109.380, 372.922
1109.862, 382.164
1110.344, 296.906
1110.826, 121.984
1111.308, 75.383
1111.790, 165.430
1112.272, 252.023
1112.754, 280.688
1113.236, 261.039
1113.719, 142.320
1114.201, 0.867
1114.683, 39.164
1115.165, 132.797
1115.647, 228.750
1116.129, 237.156
1116.611, 196.242
1117.093, 96.609
1117.576, 11.758
1118.058, 15.453
1118.540, 64.734
1119.022, 111.938
1119.504, 35.516
1119.986, 9.578
1120.468, 24.914
1120.950, 77.008
1121.432, 32.977
1121.915, 77.305
1122.397, 150.750
1122.879, 171.273
1123.361, 149.070
1123.843, 18.977
1124.325, 79.523
1124.807, 52.562
1125.289, 58.188
1125.771, 46.992
1126.254, 76.992
1126.736, 149.352
1127.218, 85.188
1127.700, 31.305
1128.182, 145.047
1128.664, 301.812
1129.146, 353.969
1129.628, 269.547
1130.111, 280.453
1130.593, 393.273
1131.075, 521.445
1131.557, 627.289
1132.039, 702.242
1132.521, 731.773
1133.003, 722.578
1133.485, 685.516
1133.968, 564.078
1134.450, 559.375
1134.932, 723.656
1135.414, 882.594
1135.896, 849.867
1136.378, 707.484
1136.860, 586.414
1137.342, 495.273
1137.824, 428.602
1138.307, 401.797
1138.789, 381.391
1139.271, 360.672
1139.753, 345.422
1140.235, 339.625
1140.717, 345.883
1141.199, 384.367
1141.681, 460.328
1142.163, 509.234
1142.646, 476.523
1143.128, 427.914
1143.610, 398.742
1144.092, 376.141
1144.574, 294.461
1145.056, 166.094
1145.538, 75.273
1146.020, 60.992
1146.503, 69.594
1146.985, 112.812
1147.467, 134.398
1147.949, 73.492
1148.431, 75.461
1148.913, 140.219
1149.395, 120.711
1149.877, 63.602
1150.359, 46.469
1150.842, 139.375
1151.324, 130.359
1151.806, 72.641
1152.288, 61.555
1152.770, 111.461
1153.252, 148.492
1153.734, 164.172
1154.216, 187.023
1154.698, 232.266
1155.181, 301.688
1155.663, 428.148
1156.145, 586.641
1156.627, 666.836
1157.109, 645.383
1157.591, 593.445
1158.073, 512.781
1158.555, 437.000
1159.038, 415.523
1159.520, 423.289
1160.002, 425.875
1160.484, 419.914
1160.966, 402.742
1161.448, 365.531
1161.930, 333.688
1162.412, 319.562
1162.895, 303.336
1163.377, 235.258
1163.859, 139.906
1164.341, 68.898
1164.823, 33.531
1165.305, 22.625
1165.787, 31.188
1166.269, 74.023
1166.751, 194.992
1167.234, 339.828
1167.716, 296.586
1168.198, 118.180
1168.680, 24.914
1169.162, 57.953
1169.644, 66.539
1170.126, 86.312
1170.608, 84.258
1171.090, 24.102
1171.573, 83.344
1172.055, 142.594
1172.537, 156.898
1173.019, 168.016
1173.501, 166.094
1173.983, 192.766
1174.465, 287.672
1174.947, 403.773
1175.430, 502.438
1175.912, 581.688
1176.394, 592.641
1176.876, 534.203
1177.358, 471.453
1177.840, 425.922
1178.322, 418.383
1178.804, 487.508
1179.286, 596.688
1179.769, 681.102
1180.251, 740.953
1180.733, 726.883
1181.215, 625.109
1181.697, 561.008
1182.179, 685.961
1182.661, 827.516
1183.143, 833.766
1183.625, 732.281
1184.108, 652.977
1184.590, 589.422
1185.072, 587.711
1185.554, 671.742
1186.036, 764.297
1186.518, 802.992
1187.000, 803.930
1187.482, 779.023
1187.965, 730.062
1188.447, 665.516
1188.929, 582.406
1189.411, 510.375
1189.893, 461.914
1190.375, 428.141
1190.857, 415.148
1191.339, 405.203
1191.822, 372.828
1192.304, 310.828
1192.786, 251.570
1193.268, 190.648
1193.750, 161.805
1194.232, 204.391
1194.714, 265.047
1195.196, 259.836
1195.678, 228.773
1196.161, 249.102
1196.643, 382.266
1197.125, 433.781
1197.607, 393.539
1198.089, 314.578
1198.571, 190.555
1199.053, 83.508
1199.535, 114.016
1200.017, 226.180
1200.500, 258.930
1200.982, 138.914
1201.464, 57.039
1201.946, 27.062
1202.428, 30.898
1202.910, 63.820
1203.392, 111.742
1203.874, 170.711
1204.357, 231.102
1204.839, 248.227
1205.321, 193.453
1205.803, 148.344
1206.285, 115.758
1206.767, 106.391
1207.249, 154.562
1207.731, 218.852
1208.214, 210.227
1208.696, 142.055
1209.178, 202.516
1209.660, 475.148
1210.142, 634.680
1210.624, 597.297
1211.106, 491.250
1211.588, 480.453
1212.070, 519.797
1212.552, 544.914
1213.035, 546.711
1213.517, 535.383
1213.999, 503.914
1214.481, 482.492
1214.963, 485.359
1215.445, 492.266
1215.927, 458.023
1216.409, 410.758
1216.892, 404.148
1217.374, 463.875
1217.856, 471.344
1218.338, 404.352
1218.820, 332.000
1219.302, 280.711
1219.784, 249.406
1220.266, 256.445
1220.749, 275.617
1221.231, 255.148
1221.713, 156.195
1222.195, 103.742
1222.677, 111.117
1223.159, 139.000
1223.641, 166.617
1224.123, 199.430
1224.605, 250.320
1225.088, 313.211
1225.570, 379.094
1226.052, 458.695
1226.534, 506.703
1227.016, 525.844
1227.498, 506.883
1227.980, 390.172
1228.462, 263.852
1228.944, 312.562
1229.427, 464.320
1229.909, 553.602
1230.391, 504.039
1230.873, 471.266
1231.355, 466.867
1231.837, 452.180
1232.319, 352.383
1232.801, 253.672
1233.284, 306.961
1233.766, 463.898
1234.248, 570.984
1234.730, 594.227
1235.212, 591.055
1235.694, 556.500
1236.176, 530.305
1236.658, 558.484
1237.141, 606.344
1237.623, 629.164
1238.105, 631.086
1238.587, 642.188
1239.069, 681.586
1239.551, 674.180
1240.033, 602.750
1240.515, 532.859
1240.997, 552.727
1241.480, 594.258
1241.962, 585.352
1242.444, 530.461
1242.926, 469.641
1243.408, 396.227
1243.890, 376.180
1244.372, 425.656
1244.854, 504.758
1245.337, 597.422
1245.819, 679.523
1246.301, 719.742
1246.783, 719.203
1247.265, 718.273
1247.747, 712.375
1248.229, 704.148
1248.711, 689.195
1249.193, 680.391
1249.676, 712.523
1250.158, 746.438
1250.640, 748.078
1251.122, 716.633
1251.604, 647.531
1252.086, 540.859
1252.568, 489.109
1253.050, 530.711
1253.532, 571.016
1254.015, 518.320
1254.497, 442.680
1254.979, 386.039
1255.461, 355.211
1255.943, 402.625
1256.425, 521.477
1256.907, 599.289
1257.389, 594.195
1257.872, 571.391
1258.354, 565.250
1258.836, 561.812
1259.318, 536.781
1259.800, 503.070
1260.282, 555.141
1260.764, 671.727
1261.246, 713.414
1261.729, 625.656
1262.211, 500.445
1262.693, 359.852
1263.175, 226.422
1263.657, 101.648
1264.139, 1.461
1264.621, 39.133
1265.103, 165.438
1265.585, 163.750
1266.068, 122.883
1266.550, 296.766
1267.032, 123.672
1267.514, 77.008
1267.996, 129.977
1268.478, 92.922
1268.960, 161.750
1269.442, 296.711
1269.924, 385.789
1270.407, 338.617
1270.889, 371.656
1271.371, 555.273
1271.853, 724.570
1272.335, 760.266
1272.817, 721.570
1273.299, 717.852
1273.781, 747.805
1274.264, 816.273
1274.746, 973.055
1275.228, 1049.242
1275.710, 1017.547
1276.192, 979.633
1276.674, 1029.281
1277.156, 1087.969
1277.638, 1024.828
1278.120, 885.383
1278.603, 748.305
1279.085, 600.867
1279.567, 550.008
1280.049, 603.102
1280.531, 638.039
1281.013, 619.945
1281.495, 448.242
1281.977, 408.797
1282.459, 439.727
1282.942, 451.789
1283.424, 436.773
1283.906, 393.820
1284.388, 320.672
1284.870, 260.469
1285.352, 254.086
1285.834, 253.984
1286.316, 202.188
1286.799, 153.148
1287.281, 178.078
1287.763, 278.625
1288.245, 392.547
1288.727, 513.852
1289.209, 565.594
1289.691, 424.273
1290.173, 273.805
1290.656, 173.867
1291.138, 119.188
1291.620, 136.039
1292.102, 206.148
1292.584, 173.445
1293.066, 60.875
1293.548, 9.281
1294.030, 94.836
1294.512, 163.039
1294.995, 114.734
1295.477, 44.125
1295.959, 0.000
##END=



