##NAMES=Enstatite
##RRUFFID=R060630
##IDEAL CHEMISTRY=MgSiO_3_
##LOCALITY=unknown
##OWNER=RRUFF
##SOURCE=Gemological Institute of America
##DESCRIPTION=Tan colored fragment
##STATUS=The identification of this mineral has been confirmed by X-ray diffraction and chemical analysis
##URL=rruff.info/R060630
##MEASURED CHEMISTRY=(Mg_0.89_Fe_0.07_Al_0.04_)_Σ=1_(Si_0.96_Al_0.04_)_Σ=1_O_3_
147.074, 0.000
147.556, 2.318
148.038, 9.758
148.521, 30.256
149.003, 25.225
149.485, 4.748
149.967, 9.605
150.449, 29.402
150.931, 156.658
151.413, 257.334
151.895, 314.980
152.378, 343.826
152.860, 382.357
153.342, 447.244
153.824, 513.096
154.306, 567.986
154.788, 628.430
155.270, 660.932
155.752, 665.121
156.234, 640.959
156.717, 586.209
157.199, 454.965
157.681, 318.877
158.163, 227.848
158.645, 221.031
159.127, 233.365
159.609, 247.900
160.091, 263.789
160.574, 286.566
161.056, 320.047
161.538, 358.951
162.020, 397.840
162.502, 416.750
162.984, 447.320
163.466, 518.582
163.948, 636.771
164.430, 729.021
164.913, 746.580
165.395, 716.326
165.877, 679.605
166.359, 650.508
166.841, 623.189
167.323, 590.037
167.805, 546.301
168.287, 515.287
168.770, 488.229
169.252, 441.506
169.734, 454.008
170.216, 452.248
170.698, 436.973
171.180, 367.514
171.662, 368.172
172.144, 340.803
172.626, 312.320
173.109, 322.977
173.591, 261.611
174.073, 271.699
174.555, 253.289
175.037, 248.137
175.519, 214.986
176.001, 190.824
176.483, 195.141
176.965, 183.859
177.448, 148.084
177.930, 115.252
178.412, 71.354
178.894, 51.016
179.376, 15.367
179.858, 14.627
180.340, 3.512
180.822, 68.484
181.305, 136.852
181.787, 153.379
182.269, 137.395
182.751, 148.396
183.233, 227.227
183.715, 340.492
184.197, 406.590
184.679, 422.738
185.161, 426.447
185.644, 449.506
186.126, 491.750
186.608, 558.162
187.090, 663.494
187.572, 794.627
188.054, 906.432
188.536, 993.986
189.018, 1077.270
189.501, 1186.051
189.983, 1316.574
190.465, 1440.814
190.947, 1528.084
191.429, 1589.463
191.911, 1690.891
192.393, 1831.992
192.875, 2017.637
193.357, 2200.701
193.840, 2372.555
194.322, 2423.961
194.804, 2475.322
195.286, 2526.615
195.768, 2577.873
196.250, 2629.055
196.732, 2680.193
197.214, 2731.271
197.697, 2782.303
198.179, 2833.277
198.661, 2855.727
199.143, 2958.768
199.625, 3016.141
200.107, 3010.119
200.589, 2959.889
201.071, 2921.889
201.553, 2904.957
202.036, 2865.174
202.518, 2766.477
203.000, 2594.008
203.482, 2442.543
203.964, 2326.338
204.446, 2241.062
204.928, 2156.580
205.410, 2072.961
205.893, 1993.344
206.375, 1923.299
206.857, 1866.857
207.339, 1815.408
207.821, 1769.539
208.303, 1726.574
208.785, 1675.266
209.267, 1614.670
209.749, 1547.307
210.232, 1470.492
210.714, 1376.938
211.196, 1309.961
211.678, 1288.932
212.160, 1305.904
212.642, 1276.492
213.124, 1181.592
213.606, 1074.281
214.089, 1007.986
214.571, 999.449
215.053, 985.973
215.535, 949.543
216.017, 892.146
216.499, 873.104
216.981, 901.729
217.463, 947.039
217.945, 975.525
218.428, 971.826
218.910, 987.279
219.392, 1039.785
219.874, 1132.070
220.356, 1200.480
220.838, 1230.316
221.320, 1249.941
221.802, 1291.188
222.285, 1359.283
222.767, 1438.234
223.249, 1528.268
223.731, 1633.744
224.213, 1719.490
224.695, 1771.098
225.177, 1818.234
225.659, 1900.430
226.141, 2027.068
226.624, 2171.990
227.106, 2328.896
227.588, 2496.551
228.070, 2680.680
228.552, 2879.908
229.034, 3095.053
229.516, 3321.986
229.998, 3552.910
230.480, 3807.793
230.963, 4090.902
231.445, 4399.809
231.927, 4740.527
232.409, 5113.998
232.891, 5513.809
233.373, 5937.178
233.855, 6383.566
234.337, 6851.727
234.820, 7351.828
235.302, 7908.090
235.784, 8424.676
236.266, 8914.291
236.748, 9357.346
237.230, 9728.887
237.712, 10072.977
238.194, 10283.785
238.676, 10327.318
239.159, 10199.506
239.641, 9919.848
240.123, 9451.592
240.605, 8852.344
241.087, 8210.693
241.569, 7468.570
242.051, 6761.125
242.533, 6138.670
243.016, 5607.916
243.498, 5129.092
243.980, 4713.287
244.462, 4343.334
244.944, 3987.334
245.426, 3635.508
245.908, 3310.174
246.390, 3021.354
246.872, 2768.568
247.355, 2546.582
247.837, 2367.910
248.319, 2213.572
248.801, 2048.773
249.283, 1861.461
249.765, 1682.098
250.247, 1520.945
250.729, 1381.701
251.212, 1254.227
251.694, 1147.346
252.176, 1049.451
252.658, 937.512
253.140, 801.654
253.622, 671.682
254.104, 557.129
254.586, 460.432
255.068, 379.332
255.551, 323.275
256.033, 279.047
256.515, 218.094
256.997, 123.707
257.479, 44.768
257.961, 1.289
258.443, 2.977
258.925, 5.629
259.408, 10.371
259.890, 14.521
260.372, 14.535
260.854, 11.113
261.336, 0.611
261.818, 29.908
262.300, 89.904
262.782, 108.113
263.264, 64.381
263.746, 2.779
264.229, 20.188
264.711, 31.396
265.193, 85.984
265.675, 118.928
266.157, 126.154
266.639, 134.402
267.121, 141.857
267.603, 152.215
268.086, 175.570
268.568, 219.941
269.050, 251.898
269.532, 255.750
270.014, 227.818
270.496, 199.879
270.978, 169.594
271.460, 142.748
271.943, 127.059
272.425, 122.006
272.907, 129.812
273.389, 160.365
273.871, 216.834
274.353, 234.357
274.835, 204.279
275.317, 150.484
275.799, 104.156
276.282, 66.787
276.764, 30.703
277.246, 9.434
277.728, 52.801
278.210, 78.191
278.692, 78.473
279.174, 73.629
279.656, 94.889
280.138, 145.562
280.621, 184.482
281.103, 186.779
281.585, 158.184
282.067, 164.631
282.549, 210.418
283.031, 277.383
283.513, 360.207
283.995, 459.400
284.478, 520.814
284.960, 512.018
285.442, 448.865
285.924, 415.133
286.406, 416.104
286.888, 422.688
287.370, 399.941
287.852, 350.443
288.335, 307.027
288.817, 279.129
289.299, 265.242
289.781, 263.977
290.263, 276.734
290.745, 290.029
291.227, 275.355
291.709, 242.080
292.191, 247.062
292.674, 323.766
293.156, 438.471
293.638, 511.127
294.120, 540.205
294.602, 561.166
295.084, 604.143
295.566, 664.584
296.048, 723.789
296.530, 773.861
297.013, 825.350
297.495, 906.941
297.977, 1017.705
298.459, 1111.998
298.941, 1160.609
299.423, 1170.240
299.905, 1153.174
300.387, 1109.047
300.870, 1045.477
301.352, 964.385
301.834, 867.869
302.316, 771.838
302.798, 668.885
303.280, 576.475
303.762, 526.881
304.244, 540.945
304.727, 570.291
305.209, 555.992
305.691, 510.334
306.173, 479.916
306.655, 511.947
307.137, 566.043
307.619, 589.775
308.101, 560.457
308.583, 537.598
309.065, 579.992
309.548, 667.293
310.030, 747.488
310.512, 794.393
310.994, 823.793
311.476, 843.965
311.958, 851.420
312.440, 870.830
312.922, 925.041
313.405, 1001.162
313.887, 1076.295
314.369, 1133.195
314.851, 1191.467
315.333, 1265.447
315.815, 1360.379
316.297, 1448.666
316.779, 1510.818
317.262, 1560.312
317.744, 1615.770
318.226, 1660.199
318.708, 1730.666
319.190, 1851.785
319.672, 2028.195
320.154, 2204.566
320.636, 2377.494
321.118, 2545.561
321.601, 2704.811
322.083, 2836.021
322.565, 2967.953
323.047, 3130.244
323.529, 3325.041
324.011, 3448.008
324.493, 3429.684
324.975, 3361.637
325.457, 3310.820
325.940, 3296.602
326.422, 3282.508
326.904, 3259.266
327.386, 3230.449
327.868, 3220.732
328.350, 3243.961
328.832, 3276.004
329.314, 3302.135
329.797, 3277.729
330.279, 3307.227
330.761, 3393.746
331.243, 3534.369
331.725, 3727.367
332.207, 4047.279
332.689, 4340.717
333.171, 4525.416
333.654, 4529.893
334.136, 4584.232
334.618, 4702.293
335.100, 4863.062
335.582, 5021.133
336.064, 5163.145
336.546, 5327.686
337.028, 5528.477
337.510, 5762.545
337.992, 6043.559
338.475, 6388.703
338.957, 6760.014
339.439, 7109.957
339.921, 7426.941
340.403, 7758.590
340.885, 8122.938
341.367, 8520.402
341.849, 8899.375
342.332, 9262.488
342.814, 9609.389
343.296, 9939.961
343.778, 10253.012
344.260, 10558.998
344.742, 10858.199
345.224, 11153.074
345.706, 11451.781
346.189, 11762.219
346.671, 12035.309
347.153, 12207.492
347.635, 12299.162
348.117, 12395.488
348.599, 12537.422
349.081, 12667.730
349.563, 12681.648
350.045, 12582.469
350.528, 12412.242
351.010, 12177.297
351.492, 11893.131
351.974, 11592.176
352.456, 11275.438
352.938, 10942.285
353.420, 10595.188
353.902, 10232.168
354.384, 9838.801
354.867, 9385.082
355.349, 8915.168
355.831, 8479.148
356.313, 8084.934
356.795, 7715.748
357.277, 7362.850
357.759, 7026.453
358.241, 6711.455
358.724, 6439.561
359.206, 6179.934
359.688, 5911.660
360.170, 5633.246
360.652, 5364.512
361.134, 5110.137
361.616, 4871.746
362.098, 4650.121
362.581, 4455.637
363.063, 4270.074
363.545, 4089.855
364.027, 3913.930
364.509, 3737.059
364.991, 3556.203
365.473, 3373.326
365.955, 3191.559
366.437, 3010.949
366.919, 2829.770
367.402, 2630.348
367.884, 2425.834
368.366, 2263.779
368.848, 2174.506
369.330, 2105.924
369.812, 2040.146
370.294, 1980.922
370.776, 1915.879
371.259, 1825.332
371.741, 1737.115
372.223, 1704.646
372.705, 1760.982
373.187, 1818.557
373.669, 1848.859
374.151, 1846.561
374.633, 1857.381
375.116, 1881.848
375.598, 1916.822
376.080, 1957.412
376.562, 2002.768
377.044, 2064.377
377.526, 2151.914
378.008, 2259.174
378.490, 2334.693
378.973, 2367.582
379.455, 2407.734
379.937, 2509.523
380.419, 2668.320
380.901, 2805.660
381.383, 2900.227
381.865, 2982.928
382.347, 3110.982
382.829, 3283.303
383.311, 3474.977
383.794, 3684.912
384.276, 3900.562
384.758, 4097.283
385.240, 4270.844
385.722, 4435.305
386.204, 4645.336
386.686, 4862.373
387.168, 4986.059
387.651, 4867.623
388.133, 4682.807
388.615, 4676.809
389.097, 4856.791
389.579, 4973.500
390.061, 4778.844
390.543, 4434.977
391.025, 4142.473
391.508, 3977.830
391.990, 3879.855
392.472, 3833.742
392.954, 3832.703
393.436, 3843.729
393.918, 3857.686
394.400, 3878.576
394.882, 3905.307
395.364, 3918.805
395.847, 3969.611
396.329, 4092.148
396.811, 4263.559
397.293, 4427.391
397.775, 4551.316
398.257, 4682.949
398.739, 4844.330
399.221, 5057.566
399.703, 5230.883
400.186, 5337.658
400.668, 5416.305
401.150, 5510.996
401.632, 5650.625
402.114, 5760.832
402.596, 5830.762
403.078, 5860.695
403.560, 5843.805
404.043, 5772.738
404.525, 5667.504
405.007, 5531.141
405.489, 5351.414
405.971, 5208.770
406.453, 5123.129
406.935, 5068.262
407.417, 4962.766
407.900, 4797.621
408.382, 4664.750
408.864, 4630.637
409.346, 4683.824
409.828, 4718.359
410.310, 4723.340
410.792, 4726.793
411.274, 4766.217
411.756, 4838.137
412.238, 4917.785
412.721, 4983.703
413.203, 5054.322
413.685, 5165.861
414.167, 5316.727
414.649, 5486.570
415.131, 5681.656
415.613, 5884.844
416.095, 6062.402
416.578, 6202.529
417.060, 6317.168
417.542, 6425.955
418.024, 6520.457
418.506, 6574.367
418.988, 6546.213
419.470, 6490.412
419.952, 6449.145
420.435, 6441.186
420.917, 6392.988
421.399, 6264.762
421.881, 6087.465
422.363, 5899.973
422.845, 5753.043
423.327, 5555.027
423.809, 5271.352
424.291, 4901.555
424.774, 4522.400
425.256, 4124.691
425.738, 3731.178
426.220, 3355.961
426.702, 3006.652
427.184, 2662.986
427.666, 2317.561
428.148, 1977.297
428.630, 1653.506
429.113, 1336.273
429.595, 1057.684
430.077, 837.602
430.559, 681.367
431.041, 547.924
431.523, 441.396
432.005, 344.252
432.487, 225.479
432.970, 84.654
433.452, 31.230
433.934, 102.367
434.416, 141.457
434.898, 185.941
435.380, 236.023
435.862, 274.559
436.344, 281.863
436.827, 267.588
437.309, 252.221
437.791, 236.164
438.273, 226.586
438.755, 237.855
439.237, 262.168
439.719, 279.131
440.201, 288.350
440.683, 279.150
441.165, 240.311
441.648, 170.588
442.130, 93.215
442.612, 1.201
443.094, 88.889
443.576, 145.787
444.058, 132.348
444.540, 120.408
445.022, 139.221
445.505, 180.336
445.987, 198.205
446.469, 160.111
446.951, 119.094
447.433, 101.158
447.915, 123.756
448.397, 133.848
448.879, 128.416
449.362, 112.758
449.844, 94.424
450.326, 73.463
450.808, 49.734
451.290, 18.389
451.772, 18.789
452.254, 26.193
452.736, 6.018
453.218, 38.723
453.701, 25.531
454.183, 33.086
454.665, 45.609
455.147, 12.240
455.629, 101.289
456.111, 149.637
456.593, 160.457
457.075, 168.176
457.557, 182.627
458.040, 208.920
458.522, 278.027
459.004, 396.127
459.486, 476.018
459.968, 407.732
460.450, 259.615
460.932, 139.457
461.414, 93.773
461.897, 74.203
462.379, 51.406
462.861, 27.891
463.343, 13.639
463.825, 19.752
464.307, 31.225
464.789, 40.486
465.271, 48.713
465.754, 48.703
466.236, 26.090
466.718, 1.357
467.200, 10.752
467.682, 28.537
468.164, 51.896
468.646, 40.053
469.128, 4.377
469.610, 27.582
470.093, 23.568
470.575, 7.648
471.057, 15.725
471.539, 52.900
472.021, 60.787
472.503, 23.123
472.985, 27.277
473.467, 18.949
473.949, 50.863
474.432, 104.553
474.914, 100.820
475.396, 57.408
475.878, 29.967
476.360, 18.797
476.842, 24.605
477.324, 67.918
477.806, 127.348
478.289, 156.072
478.771, 135.449
479.253, 100.639
479.735, 80.260
480.217, 72.205
480.699, 69.900
481.181, 73.801
481.663, 80.084
482.146, 81.770
482.628, 76.510
483.110, 87.402
483.592, 110.209
484.074, 157.625
484.556, 240.039
485.038, 433.639
485.520, 573.502
486.002, 616.789
486.484, 587.516
486.967, 560.812
487.449, 540.346
487.931, 515.461
488.413, 477.432
488.895, 419.562
489.377, 396.172
489.859, 425.129
490.341, 460.100
490.824, 441.258
491.306, 364.529
491.788, 300.584
492.270, 268.744
492.752, 258.656
493.234, 251.057
493.716, 246.121
494.198, 236.412
494.681, 214.713
495.163, 185.605
495.645, 157.965
496.127, 131.715
496.609, 103.582
497.091, 62.596
497.573, 19.111
498.055, 11.045
498.537, 17.184
499.020, 9.715
499.502, 17.051
499.984, 56.941
500.466, 84.676
500.948, 67.217
501.430, 49.195
501.912, 55.604
502.394, 100.457
502.876, 141.279
503.359, 162.309
503.841, 184.959
504.323, 234.676
504.805, 334.898
505.287, 422.225
505.769, 485.750
506.251, 527.844
506.733, 557.293
507.216, 566.488
507.698, 585.984
508.180, 633.711
508.662, 709.207
509.144, 803.484
509.626, 919.410
510.108, 1035.799
510.590, 1123.150
511.073, 1186.357
511.555, 1248.096
512.037, 1319.398
512.519, 1387.773
513.001, 1424.322
513.483, 1437.314
513.965, 1474.047
514.447, 1575.082
514.929, 1705.088
515.412, 1830.404
515.894, 1939.434
516.376, 1977.811
516.858, 2117.371
517.340, 2232.305
517.822, 2323.938
518.304, 2322.650
518.786, 2441.236
519.268, 2511.713
519.751, 2580.172
520.233, 2715.260
520.715, 2770.668
521.197, 2865.031
521.679, 2917.570
522.161, 2922.188
522.643, 2915.621
523.125, 2891.537
523.607, 2868.887
524.090, 2878.979
524.572, 2921.486
525.054, 2942.334
525.536, 2929.453
526.018, 2892.609
526.500, 2844.551
526.982, 2785.430
527.464, 2731.254
527.947, 2703.164
528.429, 2683.635
528.911, 2645.744
529.393, 2586.936
529.875, 2526.531
530.357, 2470.006
530.839, 2418.930
531.321, 2381.127
531.804, 2367.354
532.286, 2360.119
532.768, 2351.258
533.250, 2342.074
533.732, 2340.164
534.214, 2339.576
534.696, 2370.545
535.178, 2395.750
535.661, 2415.400
536.143, 2406.598
536.625, 2434.596
537.107, 2446.705
537.589, 2457.416
538.071, 2488.439
538.553, 2481.049
539.035, 2509.521
539.517, 2462.775
540.000, 2424.936
540.482, 2393.504
540.964, 2336.377
541.446, 2219.098
541.928, 2072.676
542.410, 1950.254
542.892, 1851.363
543.374, 1786.430
543.856, 1784.115
544.339, 1807.080
544.821, 1806.021
545.303, 1751.533
545.785, 1724.662
546.267, 1803.057
546.749, 1928.141
547.231, 2009.047
547.713, 1978.357
548.195, 1941.994
548.678, 1930.113
549.160, 1939.432
549.642, 1931.467
550.124, 1893.545
550.606, 1863.033
551.088, 1858.996
551.570, 1892.258
552.052, 1897.150
552.534, 1869.461
553.017, 1823.561
553.499, 1778.414
553.981, 1735.518
554.463, 1677.154
554.945, 1593.854
555.427, 1499.314
555.909, 1402.457
556.391, 1310.281
556.874, 1247.941
557.356, 1260.943
557.838, 1296.221
558.320, 1292.543
558.802, 1244.002
559.284, 1179.730
559.766, 1107.406
560.248, 1035.141
560.731, 965.006
561.213, 867.334
561.695, 814.543
562.177, 857.668
562.659, 951.322
563.141, 998.881
563.623, 964.799
564.105, 932.854
564.588, 918.734
565.070, 922.744
565.552, 947.736
566.034, 997.275
566.516, 1053.535
566.998, 1108.463
567.480, 1160.859
567.962, 1196.547
568.444, 1210.016
568.927, 1223.947
569.409, 1269.719
569.891, 1339.156
570.373, 1407.480
570.855, 1461.051
571.337, 1517.779
571.819, 1600.674
572.301, 1702.340
572.783, 1802.178
573.266, 1881.551
573.748, 1962.734
574.230, 2064.402
574.712, 2194.738
575.194, 2298.174
575.676, 2332.027
576.158, 2356.934
576.640, 2419.385
577.122, 2573.098
577.605, 2652.551
578.087, 2628.070
578.569, 2545.465
579.051, 2495.223
579.533, 2488.469
580.015, 2440.838
580.497, 2316.061
580.979, 2135.729
581.461, 1953.725
581.944, 1771.434
582.426, 1614.107
582.908, 1522.898
583.390, 1458.158
583.872, 1348.488
584.354, 1180.555
584.836, 1019.441
585.318, 908.256
585.801, 827.930
586.283, 756.455
586.765, 687.549
587.247, 626.713
587.729, 562.896
588.211, 507.219
588.693, 491.377
589.175, 557.674
589.657, 608.635
590.140, 616.803
590.622, 583.268
591.104, 543.041
591.586, 493.037
592.068, 445.396
592.550, 408.723
593.032, 382.645
593.515, 364.725
593.997, 357.062
594.479, 347.512
594.961, 317.584
595.443, 274.764
595.925, 236.562
596.407, 205.652
596.889, 185.703
597.371, 190.615
597.854, 209.936
598.336, 215.299
598.818, 189.609
599.300, 152.113
599.782, 104.770
600.264, 45.973
600.746, 5.955
601.228, 5.273
601.710, 5.701
602.193, 1.984
602.675, 16.244
603.157, 2.645
603.639, 56.543
604.121, 126.016
604.603, 158.840
605.085, 155.213
605.567, 128.383
606.049, 67.213
606.532, 4.381
607.014, 15.871
607.496, 84.152
607.978, 137.709
608.460, 124.846
608.942, 86.307
609.424, 56.998
609.906, 38.688
610.388, 17.131
610.871, 32.398
611.353, 74.691
611.835, 81.291
612.317, 16.342
612.799, 18.311
613.281, 4.785
613.763, 44.750
614.245, 48.846
614.728, 1.805
615.210, 30.033
615.692, 28.400
616.174, 9.566
616.656, 22.506
617.138, 66.625
617.620, 97.510
618.102, 79.115
618.584, 36.172
619.067, 20.088
619.549, 29.098
620.031, 40.582
620.513, 44.385
620.995, 40.580
621.477, 27.521
621.959, 2.715
622.442, 19.758
622.924, 35.426
623.406, 45.062
623.888, 49.422
624.370, 48.242
624.852, 37.566
625.334, 14.158
625.816, 16.025
626.298, 33.926
626.781, 71.293
627.263, 96.771
627.745, 74.713
628.227, 114.051
628.709, 128.771
629.191, 155.699
629.673, 173.660
630.155, 221.627
630.638, 285.230
631.120, 341.799
631.602, 388.924
632.084, 439.506
632.566, 517.914
633.048, 596.283
633.530, 646.785
634.012, 633.768
634.494, 636.939
634.977, 684.854
635.459, 753.754
635.941, 803.969
636.423, 813.758
636.905, 848.424
637.387, 931.180
637.869, 1044.924
638.351, 1128.061
638.833, 1178.260
639.316, 1210.477
639.798, 1223.756
640.280, 1225.055
640.762, 1233.998
641.244, 1250.557
641.726, 1273.904
642.208, 1310.914
642.690, 1351.316
643.172, 1379.230
643.655, 1382.641
644.137, 1410.219
644.619, 1488.125
645.101, 1599.877
645.583, 1727.420
646.065, 1896.516
646.547, 2044.938
647.029, 2154.242
647.511, 2245.605
647.994, 2360.123
648.476, 2494.725
648.958, 2662.312
649.440, 2868.131
649.922, 3105.588
650.404, 3345.553
650.886, 3586.311
651.369, 3835.680
651.851, 4109.480
652.333, 4386.045
652.815, 4619.238
653.297, 4804.947
653.779, 5025.428
654.261, 5370.930
654.743, 5748.031
655.225, 6073.244
655.708, 6301.947
656.190, 6539.996
656.672, 6790.086
657.154, 7065.363
657.636, 7398.408
658.118, 7835.949
658.600, 8202.270
659.082, 8459.312
659.565, 8643.525
660.047, 8835.936
660.529, 9036.670
661.011, 9201.934
661.493, 9328.121
661.975, 9394.828
662.457, 9367.410
662.939, 9252.969
663.421, 9078.852
663.904, 8806.273
664.386, 8523.672
664.868, 8308.098
665.350, 8171.898
665.832, 8004.375
666.314, 7764.496
666.796, 7503.336
667.278, 7248.473
667.760, 6970.098
668.243, 6762.492
668.725, 6640.785
669.207, 6569.754
669.689, 6513.613
670.171, 6470.895
670.653, 6434.840
671.135, 6398.961
671.617, 6382.434
672.099, 6419.809
672.582, 6501.996
673.064, 6604.121
673.546, 6723.617
674.028, 6855.602
674.510, 6972.434
674.992, 7089.625
675.474, 7277.348
675.956, 7615.926
676.439, 7988.699
676.921, 8337.109
677.403, 8656.617
677.885, 9048.590
678.367, 9530.480
678.849, 10053.211
679.331, 10568.777
679.813, 11083.824
680.295, 11670.918
680.778, 12341.426
681.260, 13060.406
681.742, 13797.863
682.224, 14549.410
682.706, 15293.059
683.188, 16043.828
683.670, 16752.633
684.153, 17410.328
684.635, 18006.680
685.117, 18514.883
685.599, 18998.773
686.081, 19318.965
686.563, 19430.426
687.045, 19359.559
687.527, 19156.023
688.009, 18817.039
688.492, 18355.211
688.974, 17769.590
689.456, 17065.004
689.938, 16257.531
690.420, 15346.973
690.902, 14433.293
691.384, 13577.320
691.866, 12760.438
692.348, 11945.484
692.831, 11134.559
693.313, 10356.500
693.795, 9642.828
694.277, 8969.297
694.759, 8309.941
695.241, 7638.008
695.723, 7045.270
696.205, 6569.504
696.688, 6147.227
697.170, 5723.266
697.652, 5284.465
698.134, 4888.043
698.616, 4542.242
699.098, 4234.438
699.580, 3955.840
700.062, 3703.758
700.544, 3463.676
701.027, 3231.973
701.509, 3011.418
701.991, 2806.875
702.473, 2615.605
702.955, 2433.574
703.437, 2249.227
703.919, 2080.672
704.401, 1930.609
704.883, 1800.414
705.366, 1707.590
705.848, 1691.621
706.330, 1657.461
706.812, 1563.668
707.294, 1414.285
707.776, 1279.957
708.258, 1151.121
708.740, 1084.738
709.222, 1009.355
709.705, 986.625
710.187, 951.160
710.669, 903.648
711.151, 807.848
711.633, 774.457
712.115, 716.113
712.597, 670.316
713.080, 688.938
713.562, 696.516
714.044, 661.020
714.526, 609.676
715.008, 572.230
715.490, 551.887
715.972, 537.930
716.454, 530.355
716.936, 526.609
717.419, 526.605
717.901, 529.445
718.383, 517.047
718.865, 478.676
719.347, 430.547
719.829, 384.598
720.311, 347.184
720.793, 334.816
721.276, 380.383
721.758, 431.883
722.240, 463.453
722.722, 471.789
723.204, 464.438
723.686, 434.164
724.168, 405.055
724.650, 387.098
725.132, 379.207
725.615, 352.391
726.097, 300.996
726.579, 254.312
727.061, 235.117
727.543, 233.984
728.025, 234.406
728.507, 236.523
728.989, 230.137
729.471, 192.754
729.954, 152.629
730.436, 144.391
730.918, 184.020
731.400, 214.430
731.882, 222.461
732.364, 213.539
732.846, 194.531
733.328, 159.602
733.810, 127.805
734.293, 95.465
734.775, 64.113
735.257, 42.637
735.739, 23.824
736.221, 7.273
736.703, 9.992
737.185, 7.922
737.667, 40.281
738.149, 112.746
738.632, 161.559
739.114, 144.273
739.596, 124.742
740.078, 126.137
740.560, 140.266
741.042, 133.910
741.524, 62.898
742.006, 48.074
742.489, 142.684
742.971, 305.977
743.453, 367.480
743.935, 320.805
744.417, 289.848
744.899, 351.500
745.381, 459.285
745.863, 527.875
746.346, 559.582
746.828, 591.801
747.310, 645.078
747.792, 708.562
748.274, 779.508
748.756, 857.059
749.238, 920.922
749.720, 954.438
750.203, 993.273
750.685, 1069.027
751.167, 1188.602
751.649, 1214.012
752.131, 1134.848
752.613, 1025.398
753.095, 937.648
753.577, 868.723
754.059, 816.762
754.542, 783.555
755.024, 753.617
755.506, 711.496
755.988, 668.250
756.470, 638.160
756.952, 636.207
757.434, 614.543
757.916, 542.047
758.398, 460.930
758.881, 407.422
759.363, 385.676
759.845, 373.656
760.327, 375.145
760.809, 369.336
761.291, 317.805
761.773, 233.484
762.255, 166.504
762.737, 140.461
763.220, 116.605
763.702, 41.734
764.184, 49.062
764.666, 99.148
765.148, 87.195
765.630, 35.594
766.112, 96.797
766.594, 252.785
767.076, 315.164
767.559, 254.809
768.041, 190.414
768.523, 149.812
769.005, 121.625
769.487, 65.441
769.969, 8.785
770.451, 40.273
770.933, 45.375
771.416, 147.191
771.898, 166.227
772.380, 122.547
772.862, 83.531
773.344, 70.332
773.826, 68.492
774.308, 79.684
774.790, 100.934
775.273, 111.992
775.755, 114.777
776.237, 104.281
776.719, 73.992
777.201, 30.672
777.683, 2.824
778.165, 26.367
778.647, 45.027
779.130, 79.867
779.612, 98.793
780.094, 52.746
780.576, 55.246
781.058, 129.465
781.540, 104.480
782.022, 69.043
782.504, 71.137
782.986, 116.352
783.469, 112.574
783.951, 41.629
784.433, 21.855
784.915, 4.852
785.397, 65.887
785.879, 73.859
786.361, 14.336
786.843, 44.031
787.325, 45.402
787.808, 19.969
788.290, 11.160
788.772, 51.551
789.254, 65.023
789.736, 22.500
790.218, 32.965
790.700, 79.246
791.182, 122.816
791.664, 129.539
792.147, 96.211
792.629, 131.867
793.111, 57.398
793.593, 9.781
794.075, 12.449
794.557, 66.609
795.039, 15.129
795.521, 15.980
796.003, 19.055
796.486, 50.688
796.968, 13.910
797.450, 54.578
797.932, 69.859
798.414, 109.430
798.896, 85.402
799.378, 88.996
799.860, 109.371
800.343, 146.973
800.825, 186.062
801.307, 221.770
801.789, 242.789
802.271, 211.230
802.753, 94.430
803.235, 0.934
803.717, 13.586
804.200, 76.180
804.682, 117.531
805.164, 105.125
805.646, 97.824
806.128, 103.742
806.610, 107.852
807.092, 80.680
807.574, 21.105
808.057, 0.004
808.539, 39.891
809.021, 89.172
809.503, 73.785
809.985, 22.523
810.467, 11.180
810.949, 5.605
811.431, 10.977
811.913, 30.996
812.396, 53.742
812.878, 79.559
813.360, 122.141
813.842, 144.051
814.324, 132.738
814.806, 102.539
815.288, 68.426
815.770, 35.195
816.252, 12.543
816.735, 4.066
817.217, 13.590
817.699, 60.672
818.181, 123.039
818.663, 176.602
819.145, 221.504
819.627, 240.855
820.109, 206.891
820.591, 159.047
821.074, 153.547
821.556, 206.676
822.038, 234.246
822.520, 215.047
823.002, 176.570
823.484, 147.598
823.966, 133.387
824.448, 157.871
824.930, 255.203
825.413, 349.133
825.895, 382.605
826.377, 380.543
826.859, 374.965
827.341, 345.836
827.823, 358.086
828.305, 336.809
828.787, 395.957
829.270, 431.430
829.752, 446.414
830.234, 388.664
830.716, 425.117
831.198, 423.375
831.680, 420.023
832.162, 469.172
832.644, 421.465
833.127, 469.664
833.609, 479.527
834.091, 506.859
834.573, 496.188
835.055, 496.191
835.537, 570.082
836.019, 643.039
836.501, 706.465
836.984, 757.824
837.466, 794.652
837.948, 823.133
838.430, 852.445
838.912, 875.410
839.394, 910.617
839.876, 990.785
840.358, 1088.883
840.841, 1164.840
841.323, 1182.359
841.805, 1212.980
842.287, 1281.230
842.769, 1352.812
843.251, 1360.453
843.733, 1295.953
844.215, 1265.738
844.697, 1292.387
845.180, 1339.801
845.662, 1358.359
846.144, 1361.191
846.626, 1374.461
847.108, 1425.883
847.590, 1451.648
848.072, 1406.145
848.554, 1323.137
849.036, 1245.098
849.519, 1165.938
850.001, 1124.520
850.483, 1133.258
850.965, 1157.137
851.447, 1128.492
851.929, 1059.426
852.411, 1005.004
852.893, 997.770
853.375, 969.703
853.858, 840.441
854.340, 676.090
854.822, 543.094
855.304, 470.281
855.786, 426.602
856.268, 432.500
856.750, 441.621
857.232, 390.973
857.714, 276.441
858.197, 223.820
858.679, 250.352
859.161, 313.742
859.643, 390.734
860.125, 466.117
860.607, 515.621
861.089, 527.711
861.571, 526.867
862.054, 520.484
862.536, 502.117
863.018, 466.773
863.500, 407.359
863.982, 350.469
864.464, 292.273
864.946, 247.590
865.428, 241.648
865.911, 258.152
866.393, 249.402
866.875, 207.930
867.357, 174.645
867.839, 181.449
868.321, 202.113
868.803, 228.406
869.285, 274.230
869.768, 254.945
870.250, 131.293
870.732, 12.223
871.214, 23.695
871.696, 14.180
872.178, 25.840
872.660, 11.246
873.142, 43.812
873.624, 17.203
874.107, 11.941
874.589, 26.355
875.071, 116.508
875.553, 106.809
876.035, 126.277
876.517, 130.355
876.999, 72.754
877.481, 37.254
877.963, 92.105
878.446, 87.328
878.928, 73.531
879.410, 80.727
879.892, 97.594
880.374, 105.066
880.856, 106.512
881.338, 118.785
881.820, 196.945
882.302, 238.441
882.785, 170.738
883.267, 29.934
883.749, 22.461
884.231, 38.410
884.713, 73.129
885.195, 12.332
885.677, 84.246
886.159, 84.211
886.641, 13.785
887.124, 46.121
887.606, 29.551
888.088, 23.277
888.570, 94.059
889.052, 202.309
889.534, 233.637
890.016, 90.562
890.498, 123.598
890.981, 132.691
891.463, 199.184
891.945, 251.734
892.427, 291.082
892.909, 277.754
893.391, 332.426
893.873, 359.844
894.355, 400.758
894.838, 430.102
895.320, 473.211
895.802, 503.008
896.284, 541.547
896.766, 597.902
897.248, 648.434
897.730, 670.785
898.212, 664.855
898.695, 624.879
899.177, 546.102
899.659, 471.195
900.141, 457.539
900.623, 459.227
901.105, 423.344
901.587, 327.254
902.069, 252.793
902.551, 202.219
903.034, 185.133
903.516, 227.652
903.998, 331.145
904.480, 354.395
904.962, 294.934
905.444, 232.371
905.926, 230.297
906.408, 254.777
906.890, 270.805
907.373, 276.004
907.855, 277.910
908.337, 267.742
908.819, 266.461
909.301, 288.922
909.783, 330.535
910.265, 336.234
910.747, 303.004
911.229, 289.500
911.712, 336.723
912.194, 410.926
912.676, 473.828
913.158, 528.555
913.640, 580.211
914.122, 602.332
914.604, 654.086
915.086, 791.215
915.568, 956.059
916.051, 996.352
916.533, 893.070
917.015, 857.402
917.497, 960.285
917.979, 1106.641
918.461, 1178.570
918.943, 1198.289
919.425, 1199.711
919.908, 1164.074
920.390, 1165.727
920.872, 1256.320
921.354, 1378.105
921.836, 1467.730
922.318, 1508.301
922.800, 1616.816
923.282, 1812.434
923.765, 2014.234
924.247, 2125.711
924.729, 2190.992
925.211, 2280.094
925.693, 2400.164
926.175, 2548.688
926.657, 2768.469
927.139, 2976.367
927.622, 3116.297
928.104, 3183.648
928.586, 3284.855
929.068, 3429.512
929.550, 3550.332
930.032, 3581.703
930.514, 3563.656
930.996, 3577.066
931.478, 3617.285
931.961, 3628.730
932.443, 3559.160
932.925, 3477.918
933.407, 3424.184
933.889, 3387.383
934.371, 3339.543
934.853, 3281.406
935.335, 3239.039
935.817, 3226.285
936.300, 3204.324
936.782, 3077.156
937.264, 2897.227
937.746, 2779.945
938.228, 2847.531
938.710, 2870.027
939.192, 2719.926
939.674, 2516.555
940.156, 2404.258
940.639, 2405.438
941.121, 2376.453
941.603, 2300.430
942.085, 2211.016
942.567, 2125.410
943.049, 2048.371
943.531, 1993.594
944.013, 1974.422
944.495, 1939.000
944.978, 1808.715
945.460, 1701.016
945.942, 1702.637
946.424, 1820.234
946.906, 1843.562
947.388, 1764.664
947.870, 1664.820
948.352, 1595.391
948.835, 1537.809
949.317, 1456.594
949.799, 1360.375
950.281, 1286.113
950.763, 1255.324
951.245, 1242.488
951.727, 1250.797
952.209, 1266.355
952.692, 1254.988
953.174, 1216.219
953.656, 1143.895
954.138, 1016.609
954.620, 899.039
955.102, 901.484
955.584, 960.941
956.066, 973.387
956.549, 874.426
957.031, 789.820
957.513, 740.469
957.995, 711.863
958.477, 699.770
958.959, 705.633
959.441, 688.539
959.923, 646.996
960.405, 579.520
960.888, 459.625
961.370, 328.121
961.852, 224.344
962.334, 151.297
962.816, 112.992
963.298, 136.102
963.780, 157.430
964.262, 153.660
964.744, 128.750
965.227, 101.242
965.709, 70.652
966.191, 33.758
966.673, 21.594
967.155, 72.863
967.637, 100.547
968.119, 110.312
968.601, 114.484
969.083, 97.520
969.566, 108.238
970.048, 167.926
970.530, 230.781
971.012, 214.980
971.494, 139.820
971.976, 98.680
972.458, 110.711
972.940, 128.750
973.422, 122.629
973.905, 104.445
974.387, 87.172
974.869, 76.379
975.351, 35.492
975.833, 47.188
976.315, 124.633
976.797, 158.355
977.279, 166.207
977.762, 203.410
978.244, 264.172
978.726, 322.051
979.208, 353.770
979.690, 385.961
980.172, 422.871
980.654, 469.812
981.136, 548.895
981.619, 673.645
982.101, 751.742
982.583, 744.934
983.065, 728.051
983.547, 828.727
984.029, 989.281
984.511, 1100.613
984.993, 1107.602
985.476, 1144.980
985.958, 1272.566
986.440, 1433.188
986.922, 1586.062
987.404, 1729.535
987.886, 1912.594
988.368, 2139.289
988.850, 2343.383
989.332, 2427.438
989.815, 2500.469
990.297, 2688.508
990.779, 2981.008
991.261, 3268.891
991.743, 3526.133
992.225, 3780.418
992.707, 4035.918
993.189, 4294.461
993.672, 4558.285
994.154, 4830.688
994.636, 5145.438
995.118, 5521.402
995.600, 5925.133
996.082, 6351.688
996.564, 6788.719
997.046, 7212.355
997.528, 7599.129
998.011, 8039.168
998.493, 8541.570
998.975, 9065.164
999.457, 9571.293
999.939, 10068.305
1000.421, 10578.258
1000.903, 11109.359
1001.385, 11685.973
1001.867, 12418.266
1002.350, 13112.473
1002.832, 13633.793
1003.314, 14041.250
1003.796, 14609.957
1004.278, 15357.219
1004.760, 16053.023
1005.242, 16600.992
1005.724, 17094.219
1006.207, 17654.441
1006.689, 18249.512
1007.171, 18816.555
1007.653, 19367.188
1008.135, 19847.395
1008.617, 20249.980
1009.099, 20593.223
1009.581, 20897.812
1010.063, 21160.520
1010.546, 21356.305
1011.028, 21482.805
1011.510, 21514.719
1011.992, 21399.785
1012.474, 21211.062
1012.956, 21017.137
1013.438, 20808.145
1013.920, 20472.113
1014.403, 19948.707
1014.885, 19456.074
1015.367, 19064.898
1015.849, 18723.508
1016.331, 18336.961
1016.813, 17918.941
1017.295, 17498.094
1017.777, 17053.453
1018.259, 16673.000
1018.742, 16444.246
1019.224, 16261.801
1019.706, 16022.504
1020.188, 15710.766
1020.670, 15469.859
1021.152, 15302.012
1021.634, 15199.445
1022.116, 15102.145
1022.599, 15034.387
1023.081, 15107.148
1023.563, 15145.879
1024.045, 15154.707
1024.527, 15038.977
1025.009, 15087.977
1025.491, 15064.004
1025.973, 15033.969
1026.455, 15097.547
1026.938, 15055.723
1027.420, 15116.164
1027.902, 15346.504
1028.384, 15542.172
1028.866, 15535.344
1029.348, 15462.070
1029.830, 15450.578
1030.312, 15510.438
1030.794, 15617.008
1031.277, 15787.812
1031.759, 15919.676
1032.241, 15946.594
1032.723, 15883.062
1033.205, 15717.969
1033.687, 15478.852
1034.169, 15266.840
1034.651, 15195.484
1035.134, 15058.863
1035.616, 14792.238
1036.098, 14458.797
1036.580, 14197.934
1037.062, 13998.859
1037.544, 13702.410
1038.026, 13260.500
1038.508, 12795.227
1038.990, 12393.109
1039.473, 12021.250
1039.955, 11662.582
1040.437, 11316.547
1040.919, 10941.164
1041.401, 10528.688
1041.883, 10100.551
1042.365, 9667.398
1042.847, 9232.602
1043.329, 8810.109
1043.812, 8404.449
1044.294, 8018.672
1044.776, 7653.754
1045.258, 7321.707
1045.740, 7036.781
1046.222, 6773.414
1046.704, 6488.125
1047.186, 6180.531
1047.669, 5901.090
1048.151, 5655.844
1048.633, 5427.625
1049.115, 5210.340
1049.597, 4993.516
1050.079, 4754.605
1050.561, 4491.637
1051.043, 4271.246
1051.526, 4096.586
1052.008, 3958.547
1052.490, 3859.738
1052.972, 3790.766
1053.454, 3769.223
1053.936, 3759.543
1054.418, 3677.059
1054.900, 3439.633
1055.382, 3204.930
1055.865, 2986.539
1056.347, 2816.855
1056.829, 2755.047
1057.311, 2796.820
1057.793, 2753.254
1058.275, 2620.973
1058.757, 2466.664
1059.239, 2319.941
1059.721, 2188.266
1060.204, 2095.738
1060.686, 2036.578
1061.168, 1960.738
1061.650, 1871.473
1062.132, 1783.051
1062.614, 1712.043
1063.096, 1630.008
1063.578, 1459.465
1064.061, 1255.852
1064.543, 1133.340
1065.025, 1136.590
1065.507, 1117.762
1065.989, 1010.262
1066.471, 901.398
1066.953, 843.512
1067.435, 825.109
1067.917, 742.039
1068.400, 605.129
1068.882, 502.297
1069.364, 499.203
1069.846, 512.617
1070.328, 506.207
1070.810, 478.445
1071.292, 417.555
1071.774, 298.074
1072.256, 247.867
1072.739, 285.125
1073.221, 345.059
1073.703, 376.578
1074.185, 381.875
1074.667, 348.496
1075.149, 278.422
1075.631, 246.641
1076.114, 326.738
1076.596, 363.551
1077.078, 302.297
1077.560, 183.109
1078.042, 86.383
1078.524, 15.418
1079.006, 13.375
1079.488, 22.594
1079.970, 51.809
1080.453, 40.473
1080.935, 2.617
1081.417, 59.465
1081.899, 154.824
1082.381, 160.184
1082.863, 69.480
1083.345, 7.559
1083.827, 26.324
1084.309, 85.457
1084.792, 81.133
1085.274, 35.523
1085.756, 9.789
1086.238, 36.340
1086.720, 32.703
1087.202, 17.789
1087.684, 75.672
1088.166, 89.219
1088.649, 73.863
1089.131, 82.590
1089.613, 121.641
1090.095, 129.605
1090.577, 36.801
1091.059, 35.812
1091.541, 30.820
1092.023, 21.383
1092.505, 4.109
1092.988, 72.500
1093.470, 99.414
1093.952, 21.902
1094.434, 72.551
1094.916, 141.141
1095.398, 175.535
1095.880, 165.426
1096.362, 102.980
1096.844, 51.281
1097.327, 6.121
1097.809, 2.230
1098.291, 113.836
1098.773, 238.754
1099.255, 234.832
1099.737, 147.441
1100.219, 100.031
1100.701, 144.492
1101.184, 191.715
1101.666, 245.973
1102.148, 278.219
1102.630, 222.355
1103.112, 126.734
1103.594, 129.977
1104.076, 239.598
1104.558, 306.922
1105.041, 211.945
1105.523, 124.086
1106.005, 106.984
1106.487, 137.129
1106.969, 150.535
1107.451, 149.000
1107.933, 146.152
1108.415, 144.902
1108.897, 145.363
1109.380, 160.680
1109.862, 168.867
1110.344, 147.199
1110.826, 94.480
1111.308, 44.879
1111.790, 4.523
1112.272, 18.707
1112.754, 69.754
1113.236, 157.617
1113.719, 92.250
1114.201, 49.559
1114.683, 87.238
1115.165, 27.148
1115.647, 8.785
1116.129, 21.934
1116.611, 55.160
1117.093, 16.141
1117.576, 23.754
1118.058, 33.359
1118.540, 21.934
1119.022, 42.219
1119.504, 12.125
1119.986, 19.074
1120.468, 14.805
1120.950, 101.699
1121.432, 94.047
1121.915, 19.695
1122.397, 7.176
1122.879, 41.621
1123.361, 83.512
1123.843, 62.230
1124.325, 32.348
1124.807, 32.992
1125.289, 55.805
1125.771, 24.172
1126.254, 58.070
1126.736, 101.414
1127.218, 60.512
1127.700, 7.004
1128.182, 71.164
1128.664, 124.215
1129.146, 150.434
1129.628, 135.195
1130.111, 159.695
1130.593, 227.605
1131.075, 295.652
1131.557, 334.805
1132.039, 354.691
1132.521, 361.391
1133.003, 357.734
1133.485, 352.250
1133.968, 351.625
1134.450, 337.871
1134.932, 305.012
1135.414, 276.168
1135.896, 289.301
1136.378, 321.617
1136.860, 338.480
1137.342, 337.316
1137.824, 299.418
1138.307, 142.613
1138.789, 57.109
1139.271, 109.996
1139.753, 219.738
1140.235, 232.812
1140.717, 182.234
1141.199, 157.492
1141.681, 175.195
1142.163, 192.770
1142.646, 180.203
1143.128, 181.707
1143.610, 238.020
1144.092, 321.160
1144.574, 264.836
1145.056, 92.512
1145.538, 17.418
1146.020, 36.426
1146.503, 109.609
1146.985, 120.102
1147.467, 103.855
1147.949, 103.898
1148.431, 128.051
1148.913, 96.902
1149.395, 12.703
1149.877, 50.449
1150.359, 22.660
1150.842, 17.438
1151.324, 1.773
1151.806, 43.766
1152.288, 45.512
1152.770, 1.477
1153.252, 52.008
1153.734, 102.590
1154.216, 149.602
1154.698, 198.074
1155.181, 234.652
1155.663, 233.844
1156.145, 202.945
1156.627, 191.379
1157.109, 198.785
1157.591, 248.574
1158.073, 368.707
1158.555, 469.707
1159.038, 382.410
1159.520, 216.277
1160.002, 164.105
1160.484, 257.953
1160.966, 300.609
1161.448, 211.707
1161.930, 154.789
1162.412, 195.895
1162.895, 283.422
1163.377, 307.586
1163.859, 289.883
1164.341, 279.504
1164.823, 293.816
1165.305, 295.906
1165.787, 279.160
1166.269, 246.105
1166.751, 192.051
1167.234, 125.816
1167.716, 71.199
1168.198, 31.535
1168.680, 16.352
1169.162, 54.113
1169.644, 79.547
1170.126, 59.207
1170.608, 34.875
1171.090, 32.438
1171.573, 49.941
1172.055, 68.645
1172.537, 89.863
1173.019, 120.727
1173.501, 164.891
1173.983, 206.816
1174.465, 242.629
1174.947, 266.770
1175.430, 251.508
1175.912, 197.277
1176.394, 163.449
1176.876, 147.477
1177.358, 160.082
1177.840, 230.945
1178.322, 299.137
1178.804, 330.219
1179.286, 330.020
1179.769, 310.895
1180.251, 272.152
1180.733, 232.664
1181.215, 188.465
1181.697, 177.816
1182.179, 275.008
1182.661, 386.406
1183.143, 429.219
1183.625, 407.773
1184.108, 375.535
1184.590, 330.203
1185.072, 330.090
1185.554, 409.051
1186.036, 478.680
1186.518, 419.707
1187.000, 324.016
1187.482, 291.754
1187.965, 199.730
1188.447, 293.895
1188.929, 342.816
1189.411, 348.957
1189.893, 184.188
1190.375, 240.043
1190.857, 207.461
1191.339, 171.219
1191.822, 258.082
1192.304, 118.059
1192.786, 190.836
1193.268, 194.988
1193.750, 204.219
1194.232, 182.688
1194.714, 151.848
1195.196, 144.758
1195.678, 147.609
1196.161, 130.242
1196.643, 62.418
1197.125, 37.629
1197.607, 64.941
1198.089, 100.547
1198.571, 97.004
1199.053, 87.906
1199.535, 143.660
1200.017, 235.195
1200.500, 259.426
1200.982, 161.539
1201.464, 84.992
1201.946, 38.609
1202.428, 29.062
1202.910, 102.266
1203.392, 189.770
1203.874, 183.758
1204.357, 96.156
1204.839, 57.852
1205.321, 81.570
1205.803, 181.754
1206.285, 394.938
1206.767, 588.969
1207.249, 545.801
1207.731, 389.316
1208.214, 308.879
1208.696, 322.465
1209.178, 350.043
1209.660, 402.133
1210.142, 409.770
1210.624, 339.734
1211.106, 242.355
1211.588, 191.047
1212.070, 174.191
1212.552, 176.770
1213.035, 198.266
1213.517, 212.344
1213.999, 194.898
1214.481, 227.297
1214.963, 364.996
1215.445, 521.309
1215.927, 537.691
1216.409, 465.945
1216.892, 386.312
1217.374, 308.605
1217.856, 260.230
1218.338, 256.309
1218.820, 248.555
1219.302, 212.211
1219.784, 161.867
1220.266, 115.391
1220.749, 78.453
1221.231, 57.723
1221.713, 37.367
1222.195, 100.992
1222.677, 295.984
1223.159, 448.070
1223.641, 421.488
1224.123, 304.219
1224.605, 233.973
1225.088, 205.289
1225.570, 206.059
1226.052, 250.332
1226.534, 298.012
1227.016, 354.762
1227.498, 399.043
1227.980, 418.590
1228.462, 411.840
1228.944, 363.250
1229.427, 288.023
1229.909, 224.035
1230.391, 161.613
1230.873, 155.348
1231.355, 222.293
1231.837, 294.895
1232.319, 305.785
1232.801, 291.797
1233.284, 319.512
1233.766, 374.355
1234.248, 391.172
1234.730, 329.324
1235.212, 311.176
1235.694, 357.844
1236.176, 406.652
1236.658, 369.949
1237.141, 315.742
1237.623, 352.438
1238.105, 458.133
1238.587, 494.457
1239.069, 418.410
1239.551, 377.512
1240.033, 397.293
1240.515, 434.121
1240.997, 469.629
1241.480, 478.965
1241.962, 397.266
1242.444, 248.711
1242.926, 222.805
1243.408, 361.621
1243.890, 461.520
1244.372, 481.172
1244.854, 466.223
1245.337, 440.672
1245.819, 418.723
1246.301, 423.480
1246.783, 453.527
1247.265, 454.898
1247.747, 418.594
1248.229, 431.062
1248.711, 523.789
1249.193, 607.590
1249.676, 574.973
1250.158, 504.023
1250.640, 472.926
1251.122, 478.062
1251.604, 450.297
1252.086, 387.430
1252.568, 365.375
1253.050, 421.793
1253.532, 462.801
1254.015, 378.777
1254.497, 267.371
1254.979, 195.867
1255.461, 168.246
1255.943, 245.746
1256.425, 423.152
1256.907, 533.621
1257.389, 507.184
1257.872, 458.816
1258.354, 456.039
1258.836, 472.562
1259.318, 488.359
1259.800, 502.711
1260.282, 526.945
1260.764, 556.305
1261.246, 549.648
1261.729, 487.469
1262.211, 405.348
1262.693, 291.504
1263.175, 199.004
1263.657, 172.109
1264.139, 195.445
1264.621, 186.988
1265.103, 151.707
1265.585, 103.605
1266.068, 40.797
1266.550, 15.242
1267.032, 80.289
1267.514, 104.625
1267.996, 46.887
1268.478, 70.602
1268.960, 176.168
1269.442, 268.352
1269.924, 347.238
1270.407, 422.102
1270.889, 449.727
1271.371, 388.184
1271.853, 349.309
1272.335, 423.172
1272.817, 556.184
1273.299, 642.504
1273.781, 683.676
1274.264, 686.023
1274.746, 595.355
1275.228, 585.145
1275.710, 693.855
1276.192, 784.926
1276.674, 741.781
1277.156, 644.641
1277.638, 618.070
1278.120, 608.535
1278.603, 503.316
1279.085, 387.805
1279.567, 339.852
1280.049, 326.215
1280.531, 321.754
1281.013, 321.695
1281.495, 312.488
1281.977, 269.809
1282.459, 209.816
1282.942, 161.031
1283.424, 121.859
1283.906, 96.375
1284.388, 94.117
1284.870, 115.430
1285.352, 218.664
1285.834, 286.242
1286.316, 165.859
1286.799, 0.848
1287.281, 0.824
1287.763, 176.000
1288.245, 210.945
1288.727, 106.492
1289.209, 0.000
##END=



