##NAMES=Gypsum
##RRUFFID=R060509
##IDEAL CHEMISTRY=CaSO_4_&#183;2H_2_O
##LOCALITY=Pierre Shale, Hermosa, Custer County, South Dakota, USA
##OWNER=RRUFF
##SOURCE=Michael Scott
##DESCRIPTION=Colorless tabular single crystal
##STATUS=The identification of this mineral has been confirmed by X-ray diffraction and chemical analysis
##URL=rruff.info/R060509
91.150, 0.000
91.632, 2.930
92.114, 8.990
92.596, 14.975
93.078, 19.057
93.560, 23.231
94.042, 29.529
94.525, 34.151
95.007, 36.357
95.489, 38.419
95.971, 43.935
96.453, 46.252
96.935, 52.302
97.417, 60.707
97.899, 58.758
98.381, 47.961
98.864, 34.523
99.346, 22.377
99.828, 11.314
100.310, 2.631
100.792, 2.371
101.274, 3.011
101.756, 4.276
102.238, 6.976
102.720, 10.494
103.203, 12.501
103.685, 13.641
104.167, 12.373
104.649, 8.464
105.131, 5.145
105.613, 7.146
106.095, 31.582
106.577, 69.398
107.060, 108.675
107.542, 150.464
108.024, 193.631
108.506, 237.979
108.988, 297.717
109.470, 344.574
109.952, 370.017
110.434, 364.769
110.916, 356.211
111.399, 340.633
111.881, 322.133
112.363, 310.805
112.845, 312.667
113.327, 319.045
113.809, 325.497
114.291, 324.631
114.773, 330.695
115.256, 349.165
115.738, 378.880
116.220, 410.309
116.702, 437.134
117.184, 465.028
117.666, 499.492
118.148, 546.523
118.630, 597.789
119.113, 647.957
119.595, 696.724
120.077, 746.169
120.559, 799.347
121.041, 853.992
121.523, 905.801
122.005, 949.654
122.487, 991.104
122.969, 1035.098
123.451, 1083.081
123.934, 1132.876
124.416, 1178.058
124.898, 1220.835
125.380, 1272.332
125.862, 1343.772
126.344, 1428.735
126.826, 1514.597
127.308, 1592.147
127.791, 1671.576
128.273, 1769.658
128.755, 1886.717
129.237, 2013.042
129.719, 2152.017
130.201, 2297.651
130.683, 2420.238
131.165, 2512.001
131.648, 2570.899
132.130, 2586.737
132.612, 2555.635
133.094, 2491.952
133.576, 2406.636
134.058, 2299.272
134.540, 2198.014
135.022, 2117.646
135.504, 2057.775
135.986, 2010.163
136.469, 1970.752
136.951, 1944.542
137.433, 1949.958
137.915, 1992.145
138.397, 2049.093
138.879, 2102.870
139.361, 2151.136
139.844, 2210.515
140.326, 2287.188
140.808, 2380.369
141.290, 2466.699
141.772, 2550.902
142.254, 2623.695
142.736, 2675.138
143.218, 2707.972
143.700, 2714.866
144.182, 2693.232
144.665, 2641.291
145.147, 2568.810
145.629, 2474.657
146.111, 2360.243
146.593, 2229.184
147.075, 2063.239
147.557, 1899.057
148.040, 1748.988
148.522, 1613.763
149.004, 1491.234
149.486, 1383.098
149.968, 1288.565
150.450, 1202.379
150.932, 1124.301
151.414, 1053.848
151.896, 991.671
152.378, 936.357
152.861, 889.522
153.343, 855.141
153.825, 832.362
154.307, 806.963
154.789, 771.707
155.271, 736.232
155.753, 707.755
156.235, 690.669
156.718, 678.334
157.200, 668.820
157.682, 661.577
158.164, 659.011
158.646, 663.145
159.128, 672.287
159.610, 683.891
160.092, 698.122
160.574, 713.436
161.057, 729.355
161.539, 746.390
162.021, 762.921
162.503, 776.864
162.985, 789.583
163.467, 804.353
163.949, 818.988
164.431, 838.017
164.913, 865.352
165.396, 905.153
165.878, 948.325
166.360, 987.600
166.842, 1025.131
167.324, 1069.842
167.806, 1125.764
168.288, 1191.907
168.770, 1267.234
169.253, 1357.050
169.735, 1452.047
170.217, 1544.361
170.699, 1634.445
171.181, 1729.095
171.663, 1833.167
172.145, 1944.215
172.627, 2062.043
173.109, 2183.338
173.592, 2312.688
174.074, 2458.047
174.556, 2619.366
175.038, 2785.886
175.520, 2949.738
176.002, 3112.620
176.484, 3272.490
176.966, 3443.271
177.449, 3610.010
177.931, 3749.606
178.413, 3861.806
178.895, 3944.701
179.377, 4004.937
179.859, 4037.724
180.341, 4018.322
180.823, 3918.810
181.305, 3756.793
181.788, 3569.887
182.270, 3356.905
182.752, 3128.552
183.234, 2901.032
183.716, 2672.664
184.198, 2448.245
184.680, 2220.331
185.162, 1997.632
185.645, 1794.874
186.127, 1619.584
186.609, 1465.736
187.091, 1323.065
187.573, 1192.223
188.055, 1077.609
188.537, 988.728
189.019, 923.088
189.501, 863.344
189.984, 804.428
190.466, 747.734
190.948, 699.501
191.430, 660.005
191.912, 626.462
192.394, 594.076
192.876, 563.186
193.358, 540.021
193.840, 530.426
194.323, 532.581
194.805, 529.135
195.287, 518.464
195.769, 506.501
196.251, 501.697
196.733, 504.250
197.215, 512.410
197.697, 525.682
198.180, 544.368
198.662, 566.785
199.144, 593.704
199.626, 623.410
200.108, 652.159
200.590, 678.581
201.072, 708.662
201.554, 746.155
202.036, 791.795
202.519, 840.237
203.001, 891.289
203.483, 945.124
203.965, 1002.618
204.447, 1063.993
204.929, 1127.281
205.411, 1189.655
205.893, 1250.876
206.376, 1317.549
206.858, 1393.929
207.340, 1475.904
207.822, 1546.585
208.304, 1606.873
208.786, 1653.318
209.268, 1683.170
209.750, 1696.680
210.232, 1694.446
210.715, 1676.570
211.197, 1643.065
211.679, 1593.180
212.161, 1523.779
212.643, 1443.548
213.125, 1359.628
213.607, 1269.272
214.089, 1179.033
214.572, 1089.894
215.054, 1002.884
215.536, 918.916
216.018, 835.992
216.500, 758.355
216.982, 690.069
217.464, 633.946
217.946, 581.402
218.428, 530.711
218.911, 481.147
219.393, 436.440
219.875, 396.869
220.357, 361.355
220.839, 329.045
221.321, 299.946
221.803, 273.519
222.285, 249.779
222.768, 228.629
223.250, 210.574
223.732, 195.907
224.214, 184.079
224.696, 174.210
225.178, 167.753
225.660, 160.859
226.142, 152.089
226.624, 140.698
227.107, 129.463
227.589, 118.439
228.071, 107.486
228.553, 96.689
229.035, 86.256
229.517, 75.370
229.999, 62.824
230.481, 44.871
230.964, 34.277
231.446, 34.647
231.928, 41.574
232.410, 42.442
232.892, 33.983
233.374, 24.163
233.856, 16.730
234.338, 11.922
234.820, 8.917
235.303, 7.946
235.785, 8.767
236.267, 11.173
236.749, 19.194
237.231, 23.442
237.713, 17.245
238.195, 9.253
238.677, 25.315
239.160, 25.980
239.642, 14.285
240.124, 4.721
240.606, 4.130
241.088, 9.084
241.570, 6.746
242.052, 10.794
242.534, 18.893
243.016, 10.058
243.499, 11.883
243.981, 19.779
244.463, 5.549
244.945, 13.223
245.427, 24.894
245.909, 27.994
246.391, 26.456
246.873, 18.136
247.355, 4.125
247.838, 3.008
248.320, 0.724
248.802, 5.315
249.284, 11.670
249.766, 20.780
250.248, 24.698
250.730, 20.620
251.212, 9.072
251.695, 0.077
252.177, 7.858
252.659, 11.704
253.141, 7.454
253.623, 11.154
254.105, 23.752
254.587, 25.140
255.069, 15.840
255.551, 11.589
256.034, 14.294
256.516, 19.577
256.998, 24.299
257.480, 30.232
257.962, 31.205
258.444, 24.250
258.926, 9.720
259.408, 0.332
259.891, 5.112
260.373, 6.244
260.855, 4.200
261.337, 3.630
261.819, 7.828
262.301, 4.998
262.783, 4.706
263.265, 9.384
263.747, 7.278
264.229, 2.666
264.712, 0.568
265.194, 2.692
265.676, 2.379
266.158, 1.772
266.640, 9.634
267.122, 13.492
267.604, 11.717
268.086, 8.668
268.569, 10.080
269.051, 18.438
269.533, 22.127
270.015, 15.400
270.497, 0.914
270.979, 4.019
271.461, 10.482
271.943, 29.698
272.426, 39.109
272.908, 37.012
273.390, 33.068
273.872, 28.671
274.354, 24.090
274.836, 23.106
275.318, 26.475
275.800, 31.625
276.282, 36.733
276.765, 42.321
277.247, 43.729
277.729, 36.677
278.211, 23.010
278.693, 21.910
279.175, 36.374
279.657, 54.649
280.139, 63.735
280.621, 63.021
281.104, 61.049
281.586, 59.262
282.068, 58.016
282.550, 59.973
283.032, 65.692
283.514, 72.347
283.996, 75.656
284.478, 75.675
284.961, 79.927
285.443, 92.876
285.925, 111.525
286.407, 122.297
286.889, 124.448
287.371, 124.123
287.853, 128.137
288.335, 136.011
288.818, 141.815
289.300, 142.089
289.782, 139.580
290.264, 143.411
290.746, 154.011
291.228, 165.941
291.710, 173.324
292.192, 176.915
292.674, 181.542
293.156, 188.794
293.639, 198.063
294.121, 206.169
294.603, 212.884
295.085, 223.450
295.567, 247.228
296.049, 279.847
296.531, 306.254
297.013, 320.343
297.496, 327.913
297.978, 336.156
298.460, 345.169
298.942, 358.282
299.424, 380.214
299.906, 408.002
300.388, 436.271
300.870, 465.110
301.353, 492.724
301.835, 511.676
302.317, 523.359
302.799, 543.126
303.281, 593.459
303.763, 658.413
304.245, 708.650
304.727, 729.656
305.209, 742.308
305.691, 766.924
306.174, 801.834
306.656, 838.232
307.138, 872.032
307.620, 903.915
308.102, 934.861
308.584, 964.557
309.066, 995.663
309.548, 1033.644
310.031, 1075.423
310.513, 1111.773
310.995, 1138.567
311.477, 1156.884
311.959, 1167.829
312.441, 1170.067
312.923, 1169.639
313.405, 1171.984
313.888, 1173.762
314.370, 1166.128
314.852, 1140.038
315.334, 1106.891
315.816, 1075.688
316.298, 1050.990
316.780, 1025.448
317.262, 992.614
317.744, 954.789
318.227, 919.546
318.709, 898.332
319.191, 873.266
319.673, 832.576
320.155, 765.081
320.637, 707.555
321.119, 677.868
321.601, 663.012
322.083, 639.854
322.566, 591.333
323.048, 543.752
323.530, 508.004
324.012, 489.107
324.494, 471.066
324.976, 454.529
325.458, 436.593
325.940, 413.148
326.422, 375.805
326.905, 341.166
327.387, 313.277
327.869, 293.408
328.351, 275.907
328.833, 262.135
329.315, 251.883
329.797, 243.653
330.280, 241.276
330.762, 235.400
331.244, 222.657
331.726, 201.838
332.208, 185.255
332.690, 173.730
333.172, 165.904
333.654, 160.548
334.136, 158.882
334.618, 157.265
335.101, 154.729
335.583, 151.377
336.065, 150.268
336.547, 153.911
337.029, 156.508
337.511, 151.538
337.993, 136.242
338.475, 123.106
338.958, 113.826
339.440, 108.155
339.922, 107.067
340.404, 112.937
340.886, 115.801
341.368, 104.559
341.850, 77.849
342.332, 60.813
342.815, 58.537
343.297, 66.538
343.779, 76.062
344.261, 87.660
344.743, 95.587
345.225, 95.240
345.707, 87.486
346.189, 78.032
346.671, 66.984
347.154, 55.835
347.636, 46.161
348.118, 38.117
348.600, 32.873
349.082, 33.262
349.564, 36.819
350.046, 36.407
350.528, 30.638
351.010, 24.806
351.493, 27.605
351.975, 35.838
352.457, 39.920
352.939, 29.296
353.421, 14.165
353.903, 9.470
354.385, 16.437
354.867, 24.668
355.349, 25.980
355.832, 22.799
356.314, 19.174
356.796, 15.942
357.278, 13.527
357.760, 12.616
358.242, 13.161
358.724, 13.770
359.207, 15.304
359.689, 15.846
360.171, 13.431
360.653, 3.424
361.135, 5.932
361.617, 11.051
362.099, 12.386
362.581, 12.478
363.063, 9.895
363.546, 7.854
364.028, 8.622
364.510, 16.045
364.992, 21.799
365.474, 23.261
365.956, 21.583
366.438, 20.401
366.920, 20.212
367.402, 20.581
367.885, 21.387
368.367, 23.025
368.849, 24.316
369.331, 26.640
369.813, 28.312
370.295, 26.179
370.777, 17.241
371.259, 8.200
371.741, 0.518
372.224, 10.717
372.706, 10.818
373.188, 5.431
373.670, 26.237
374.152, 37.196
374.634, 36.019
375.116, 30.525
375.598, 20.710
376.081, 7.199
376.563, 1.144
377.045, 3.408
377.527, 2.667
378.009, 1.031
378.491, 1.685
378.973, 3.067
379.455, 2.715
379.938, 0.653
380.420, 3.643
380.902, 10.467
381.384, 16.786
381.866, 18.429
382.348, 17.042
382.830, 22.359
383.312, 37.667
383.794, 55.464
384.276, 63.008
384.759, 61.922
385.241, 60.873
385.723, 66.728
386.205, 75.350
386.687, 77.045
387.169, 69.226
387.651, 66.117
388.134, 87.325
388.616, 122.596
389.098, 152.069
389.580, 160.364
390.062, 163.065
390.544, 171.925
391.026, 187.416
391.508, 207.006
391.990, 233.055
392.473, 260.882
392.955, 286.054
393.437, 298.750
393.919, 316.496
394.401, 348.325
394.883, 392.195
395.365, 436.384
395.847, 472.793
396.329, 511.747
396.812, 558.735
397.294, 613.751
397.776, 678.309
398.258, 746.511
398.740, 823.845
399.222, 923.676
399.704, 1058.078
400.186, 1203.169
400.668, 1350.517
401.151, 1495.303
401.633, 1658.415
402.115, 1843.092
402.597, 2043.612
403.079, 2254.851
403.561, 2473.909
404.043, 2711.506
404.525, 2969.209
405.008, 3247.582
405.490, 3533.348
405.972, 3821.615
406.454, 4130.796
406.936, 4477.694
407.418, 4863.812
407.900, 5290.212
408.382, 5757.141
408.865, 6268.003
409.347, 6835.185
409.829, 7454.149
410.311, 8123.806
410.793, 8863.385
411.275, 9654.722
411.757, 10439.229
412.239, 11247.667
412.721, 11943.685
413.203, 12395.281
413.686, 12596.334
414.168, 12511.978
414.650, 12047.372
415.132, 11329.566
415.614, 10459.149
416.096, 9444.343
416.578, 8401.094
417.060, 7354.700
417.543, 6350.110
418.025, 5479.799
418.507, 4792.631
418.989, 4209.816
419.471, 3696.396
419.953, 3254.751
420.435, 2868.348
420.917, 2552.539
421.400, 2280.323
421.882, 2038.569
422.364, 1831.294
422.846, 1643.682
423.328, 1472.461
423.810, 1318.760
424.292, 1183.305
424.774, 1068.950
425.256, 968.630
425.738, 881.624
426.221, 809.963
426.703, 742.689
427.185, 680.828
427.667, 622.315
428.149, 564.782
428.631, 504.748
429.113, 456.314
429.595, 425.434
430.078, 408.731
430.560, 382.611
431.042, 343.872
431.524, 303.064
432.006, 268.158
432.488, 239.924
432.970, 220.692
433.452, 213.519
433.935, 211.366
434.417, 200.375
434.899, 180.900
435.381, 159.675
435.863, 138.790
436.345, 119.042
436.827, 102.769
437.309, 90.300
437.791, 79.460
438.274, 66.698
438.756, 54.184
439.238, 46.269
439.720, 48.417
440.202, 52.579
440.684, 51.669
441.166, 46.495
441.648, 42.124
442.130, 41.540
442.613, 42.689
443.095, 43.882
443.577, 43.938
444.059, 45.565
444.541, 53.026
445.023, 62.392
445.505, 65.928
445.987, 53.551
446.470, 42.937
446.952, 40.256
447.434, 47.663
447.916, 54.657
448.398, 60.498
448.880, 66.547
449.362, 74.392
449.844, 85.844
450.327, 95.299
450.809, 102.068
451.291, 106.231
451.773, 107.219
452.255, 102.770
452.737, 101.558
453.219, 110.160
453.701, 129.052
454.183, 147.273
454.665, 164.681
455.148, 180.737
455.630, 194.958
456.112, 207.428
456.594, 218.253
457.076, 225.085
457.558, 231.108
458.040, 243.612
458.522, 262.469
459.005, 284.045
459.487, 306.255
459.969, 328.715
460.451, 350.796
460.933, 370.205
461.415, 392.305
461.897, 422.308
462.379, 457.888
462.862, 493.154
463.344, 525.980
463.826, 556.989
464.308, 584.415
464.790, 605.700
465.272, 633.893
465.754, 672.324
466.236, 718.905
466.718, 771.008
467.201, 835.872
467.683, 898.429
468.165, 951.721
468.647, 997.692
469.129, 1059.373
469.611, 1143.643
470.093, 1234.286
470.575, 1321.483
471.057, 1400.582
471.540, 1492.900
472.022, 1599.018
472.504, 1718.436
472.986, 1847.907
473.468, 1987.765
473.950, 2139.202
474.432, 2301.164
474.914, 2475.966
475.397, 2672.509
475.879, 2890.847
476.361, 3130.355
476.843, 3382.756
477.325, 3657.292
477.807, 3973.063
478.289, 4341.675
478.771, 4743.986
479.254, 5166.698
479.736, 5608.684
480.218, 6064.673
480.700, 6506.207
481.182, 6982.833
481.664, 7527.949
482.146, 8153.642
482.628, 8803.803
483.110, 9433.741
483.592, 10086.582
484.075, 10808.103
484.557, 11630.453
485.039, 12489.268
485.521, 13343.194
486.003, 14213.833
486.485, 15176.979
486.967, 16276.379
487.449, 17424.232
487.931, 18584.959
488.414, 19732.059
488.896, 20959.127
489.378, 22331.736
489.860, 23709.771
490.342, 24971.270
490.824, 26131.668
491.306, 27106.369
491.789, 27934.852
492.271, 28548.938
492.753, 28738.482
493.235, 28498.400
493.717, 27884.504
494.199, 26847.016
494.681, 25469.799
495.163, 23894.939
495.645, 22118.986
496.128, 20287.779
496.610, 18524.240
497.092, 16822.680
497.574, 15245.983
498.056, 13777.335
498.538, 12434.549
499.020, 11239.229
499.502, 10178.934
499.984, 9224.865
500.467, 8365.681
500.949, 7592.262
501.431, 6908.228
501.913, 6320.884
502.395, 5789.417
502.877, 5319.642
503.359, 4899.678
503.841, 4516.298
504.323, 4176.297
504.806, 3863.548
505.288, 3575.807
505.770, 3315.354
506.252, 3079.019
506.734, 2870.268
507.216, 2678.999
507.698, 2500.190
508.181, 2333.943
508.663, 2178.691
509.145, 2033.505
509.627, 1900.860
510.109, 1780.918
510.591, 1673.980
511.073, 1577.603
511.555, 1495.915
512.037, 1422.183
512.519, 1343.891
513.002, 1261.581
513.484, 1182.240
513.966, 1110.983
514.448, 1045.841
514.930, 984.265
515.412, 923.880
515.894, 869.581
516.376, 827.158
516.859, 792.323
517.341, 755.946
517.823, 714.662
518.305, 671.829
518.787, 626.394
519.269, 576.270
519.751, 536.454
520.233, 511.061
520.716, 492.024
521.198, 474.481
521.680, 460.921
522.162, 441.033
522.644, 411.303
523.126, 377.029
523.608, 352.219
524.090, 338.114
524.572, 322.912
525.055, 299.753
525.537, 270.915
526.019, 243.299
526.501, 216.882
526.983, 196.320
527.465, 191.257
527.947, 194.562
528.429, 191.931
528.911, 179.268
529.394, 161.168
529.876, 137.172
530.358, 110.573
530.840, 88.199
531.322, 73.153
531.804, 63.328
532.286, 59.740
532.768, 62.943
533.250, 63.470
533.733, 57.795
534.215, 49.822
534.697, 42.482
535.179, 38.346
535.661, 30.579
536.143, 16.682
536.625, 0.074
537.107, 11.018
537.589, 15.141
538.072, 19.186
538.554, 26.504
539.036, 36.152
539.518, 39.551
540.000, 36.131
540.482, 31.541
540.964, 31.139
541.446, 33.559
541.929, 34.582
542.411, 33.330
542.893, 31.210
543.375, 30.160
543.857, 29.402
544.339, 27.214
544.821, 20.135
545.303, 13.650
545.786, 10.333
546.268, 10.342
546.750, 14.528
547.232, 32.668
547.714, 48.305
548.196, 50.406
548.678, 26.481
549.160, 11.067
549.643, 9.554
550.125, 14.218
550.607, 15.099
551.089, 11.262
551.571, 5.666
552.053, 1.993
552.535, 10.804
553.017, 17.013
553.499, 20.539
553.982, 22.084
554.464, 18.977
554.946, 13.748
555.428, 18.333
555.910, 34.547
556.392, 52.259
556.874, 60.738
557.356, 63.679
557.838, 67.889
558.321, 74.990
558.803, 84.878
559.285, 100.806
559.767, 120.054
560.249, 134.269
560.731, 131.324
561.213, 130.589
561.695, 143.119
562.177, 172.936
562.660, 196.664
563.142, 207.078
563.624, 215.291
564.106, 230.360
564.588, 257.234
565.070, 277.098
565.552, 286.462
566.034, 289.843
566.516, 296.286
566.999, 305.937
567.481, 317.221
567.963, 328.214
568.445, 340.769
568.927, 363.844
569.409, 396.779
569.891, 427.789
570.373, 446.444
570.856, 457.757
571.338, 467.883
571.820, 477.435
572.302, 487.878
572.784, 498.939
573.266, 511.923
573.748, 528.820
574.230, 557.140
574.713, 581.982
575.195, 597.252
575.677, 604.444
576.159, 613.172
576.641, 622.636
577.123, 634.965
577.605, 651.335
578.087, 672.048
578.570, 695.533
579.052, 724.228
579.534, 751.087
580.016, 768.084
580.498, 775.675
580.980, 779.136
581.462, 776.244
581.944, 775.951
582.426, 796.371
582.909, 832.609
583.391, 866.190
583.873, 887.178
584.355, 901.304
584.837, 912.322
585.319, 920.539
585.801, 928.220
586.283, 939.583
586.765, 948.731
587.248, 948.968
587.730, 927.359
588.212, 924.722
588.694, 964.996
589.176, 1017.460
589.658, 1047.260
590.140, 1041.360
590.622, 1041.740
591.104, 1057.274
591.587, 1082.852
592.069, 1101.904
592.551, 1114.399
593.033, 1122.964
593.515, 1122.199
593.997, 1118.141
594.479, 1137.804
594.961, 1181.615
595.443, 1222.764
595.926, 1233.452
596.408, 1229.716
596.890, 1234.198
597.372, 1253.086
597.854, 1278.918
598.336, 1312.041
598.818, 1348.264
599.300, 1380.443
599.783, 1402.117
600.265, 1425.598
600.747, 1451.845
601.229, 1481.626
601.711, 1521.031
602.193, 1575.948
602.675, 1631.096
603.157, 1677.885
603.640, 1713.970
604.122, 1759.512
604.604, 1815.380
605.086, 1876.525
605.568, 1942.722
606.050, 2012.528
606.532, 2079.040
607.014, 2136.752
607.497, 2194.369
607.979, 2262.043
608.461, 2337.629
608.943, 2416.090
609.425, 2498.387
609.907, 2580.874
610.389, 2659.418
610.871, 2734.929
611.353, 2818.209
611.836, 2921.638
612.318, 3025.760
612.800, 3119.143
613.282, 3197.502
613.764, 3281.859
614.246, 3376.157
614.728, 3471.134
615.210, 3558.868
615.692, 3639.499
616.175, 3712.450
616.657, 3778.874
617.139, 3836.942
617.621, 3887.184
618.103, 3928.029
618.585, 3950.427
619.067, 3951.586
619.549, 3931.231
620.031, 3888.900
620.514, 3824.883
620.996, 3739.035
621.478, 3632.329
621.960, 3503.442
622.442, 3346.129
622.924, 3154.717
623.406, 2964.478
623.888, 2779.354
624.370, 2599.592
624.853, 2425.896
625.335, 2260.619
625.817, 2096.083
626.299, 1929.536
626.781, 1765.882
627.263, 1610.180
627.745, 1462.418
628.227, 1323.254
628.710, 1191.439
629.192, 1069.459
629.674, 965.193
630.156, 876.948
630.638, 795.941
631.120, 712.286
631.602, 634.510
632.084, 573.615
632.567, 531.025
633.049, 492.021
633.531, 451.216
634.013, 408.753
634.495, 365.890
634.977, 315.938
635.459, 276.228
635.941, 251.443
636.424, 234.251
636.906, 214.511
637.388, 192.696
637.870, 166.316
638.352, 130.907
638.834, 93.377
639.316, 74.266
639.798, 72.878
640.280, 71.847
640.763, 57.445
641.245, 38.478
641.727, 32.115
642.209, 38.002
642.691, 42.753
643.173, 36.085
643.655, 25.318
644.137, 17.086
644.619, 13.774
645.102, 9.314
645.584, 1.401
646.066, 11.717
646.548, 14.386
647.030, 4.843
647.512, 0.232
647.994, 2.574
648.476, 9.363
648.958, 10.375
649.441, 4.832
649.923, 0.118
650.405, 1.664
650.887, 7.593
651.369, 11.297
651.851, 12.558
652.333, 10.903
652.815, 2.604
653.297, 6.761
653.780, 11.413
654.262, 10.760
654.744, 9.372
655.226, 3.831
655.708, 0.002
656.190, 3.219
656.672, 25.114
657.154, 37.129
657.636, 34.696
658.119, 26.086
658.601, 22.811
659.083, 25.791
659.565, 27.796
660.047, 26.636
660.529, 24.425
661.011, 24.403
661.494, 26.952
661.976, 34.054
662.458, 53.551
662.940, 74.076
663.422, 80.441
663.904, 74.169
664.386, 68.693
664.868, 70.723
665.350, 75.907
665.833, 81.044
666.315, 84.435
666.797, 92.899
667.279, 110.695
667.761, 130.010
668.243, 144.666
668.725, 153.577
669.207, 162.382
669.690, 172.242
670.172, 180.047
670.654, 181.343
671.136, 176.265
671.618, 165.709
672.100, 148.474
672.582, 127.750
673.064, 104.704
673.546, 81.513
674.029, 63.719
674.511, 54.781
674.993, 51.158
675.475, 53.938
675.957, 62.435
676.439, 66.505
676.921, 60.276
677.403, 53.912
677.885, 52.469
678.368, 57.654
678.850, 54.436
679.332, 40.099
679.814, 25.102
680.296, 20.261
680.778, 23.850
681.260, 24.914
681.742, 21.100
682.224, 18.915
682.707, 29.757
683.189, 46.393
683.671, 55.925
684.153, 49.332
684.635, 41.029
685.117, 37.974
685.599, 37.882
686.081, 36.049
686.563, 27.949
687.046, 22.521
687.528, 22.448
688.010, 26.611
688.492, 29.711
688.974, 32.565
689.456, 31.001
689.938, 18.570
690.420, 0.402
690.903, 5.743
691.385, 2.306
691.867, 12.885
692.349, 19.244
692.831, 22.384
693.313, 22.702
693.795, 19.813
694.277, 17.126
694.760, 16.037
695.242, 16.619
695.724, 18.188
696.206, 22.009
696.688, 22.860
697.170, 18.544
697.652, 13.707
698.134, 16.855
698.617, 29.996
699.099, 35.427
699.581, 26.649
700.063, 12.175
700.545, 8.824
701.027, 14.391
701.509, 20.073
701.991, 23.967
702.473, 24.306
702.956, 15.521
703.438, 0.279
703.920, 8.808
704.402, 0.823
704.884, 10.537
705.366, 20.706
705.848, 29.593
706.330, 26.938
706.812, 5.318
707.295, 13.711
707.777, 14.505
708.259, 2.538
708.741, 13.758
709.223, 18.426
709.705, 20.227
710.187, 24.923
710.669, 29.557
711.151, 25.473
711.634, 7.617
712.116, 8.089
712.598, 9.564
713.080, 3.920
713.562, 0.032
714.044, 0.228
714.526, 1.388
715.008, 3.820
715.490, 6.612
715.973, 7.875
716.455, 7.309
716.937, 6.656
717.419, 6.969
717.901, 6.955
718.383, 1.425
718.865, 8.737
719.347, 16.108
719.830, 14.526
720.312, 9.842
720.794, 8.824
721.276, 10.902
721.758, 11.588
722.240, 6.778
722.722, 1.931
723.204, 0.180
723.687, 2.261
724.169, 3.330
724.651, 3.151
725.133, 2.265
725.615, 0.068
726.097, 3.664
726.579, 2.086
727.061, 5.771
727.544, 13.934
728.026, 15.612
728.508, 13.581
728.990, 13.999
729.472, 18.935
729.954, 22.756
730.436, 18.780
730.918, 12.763
731.400, 11.431
731.883, 25.115
732.365, 31.876
732.847, 26.922
733.329, 15.940
733.811, 6.915
734.293, 1.477
734.775, 0.864
735.257, 14.364
735.739, 34.702
736.222, 39.075
736.704, 30.092
737.186, 20.558
737.668, 14.220
738.150, 11.917
738.632, 18.624
739.114, 31.047
739.596, 36.926
740.078, 23.169
740.561, 10.490
741.043, 8.945
741.525, 17.732
742.007, 22.911
742.489, 23.579
742.971, 22.707
743.453, 19.866
743.935, 15.935
744.417, 21.897
744.900, 37.976
745.382, 52.488
745.864, 52.520
746.346, 46.773
746.828, 48.567
747.310, 60.446
747.792, 68.828
748.274, 66.621
748.757, 58.171
749.239, 46.715
749.721, 25.694
750.203, 16.632
750.685, 26.835
751.167, 39.147
751.649, 32.593
752.131, 6.695
752.614, 11.131
753.096, 17.314
753.578, 15.090
754.060, 5.847
754.542, 8.243
755.024, 23.694
755.506, 43.206
755.988, 57.203
756.471, 55.561
756.953, 45.827
757.435, 41.005
757.917, 48.186
758.399, 53.284
758.881, 54.294
759.363, 52.538
759.845, 50.504
760.327, 47.875
760.810, 48.628
761.292, 56.303
761.774, 65.317
762.256, 65.183
762.738, 57.823
763.220, 50.351
763.702, 44.273
764.184, 41.356
764.666, 46.130
765.148, 55.788
765.631, 57.725
766.113, 38.363
766.595, 25.622
767.077, 31.535
767.559, 54.235
768.041, 64.046
768.523, 59.016
769.005, 52.368
769.487, 53.266
769.970, 57.841
770.452, 58.632
770.934, 56.046
771.416, 52.381
771.898, 46.890
772.380, 42.076
772.862, 40.568
773.344, 43.435
773.827, 44.411
774.309, 39.819
774.791, 36.124
775.273, 38.542
775.755, 49.544
776.237, 49.447
776.719, 34.997
777.201, 22.309
777.683, 32.129
778.166, 55.219
778.648, 67.571
779.130, 64.976
779.612, 58.593
780.094, 56.755
780.576, 55.044
781.058, 48.416
781.541, 28.880
782.023, 18.252
782.505, 22.404
782.987, 31.827
783.469, 36.521
783.951, 35.387
784.433, 35.980
784.915, 39.888
785.397, 43.658
785.880, 41.915
786.362, 36.492
786.844, 31.869
787.326, 28.326
787.808, 28.018
788.290, 34.180
788.772, 43.903
789.254, 52.932
789.737, 64.304
790.219, 69.781
790.701, 66.541
791.183, 58.317
791.665, 51.031
792.147, 44.243
792.629, 41.992
793.111, 46.749
793.593, 53.888
794.076, 56.796
794.558, 56.020
795.040, 53.082
795.522, 46.326
796.004, 39.950
796.486, 36.933
796.968, 35.922
797.450, 33.047
797.932, 22.044
798.415, 18.743
798.897, 29.815
799.379, 48.924
799.861, 56.736
800.343, 53.024
800.825, 47.152
801.307, 41.677
801.789, 37.266
802.271, 34.592
802.754, 33.854
803.236, 35.513
803.718, 43.105
804.200, 49.624
804.682, 51.240
805.164, 48.784
805.646, 48.288
806.128, 52.089
806.610, 53.474
807.093, 49.030
807.575, 40.512
808.057, 34.193
808.539, 30.143
809.021, 27.550
809.503, 25.310
809.985, 24.504
810.468, 27.710
810.950, 34.316
811.432, 38.662
811.914, 37.587
812.396, 35.117
812.878, 31.076
813.360, 26.086
813.842, 27.017
814.324, 35.629
814.807, 44.778
815.289, 52.780
815.771, 58.430
816.253, 55.556
816.735, 45.107
817.217, 34.971
817.699, 29.625
818.181, 27.117
818.664, 25.479
819.146, 24.752
819.628, 25.371
820.110, 27.907
820.592, 31.505
821.074, 36.199
821.556, 41.880
822.038, 48.325
822.520, 56.482
823.003, 59.727
823.485, 46.551
823.967, 28.212
824.449, 31.382
824.931, 53.001
825.413, 66.642
825.895, 45.068
826.377, 21.549
826.859, 18.322
827.342, 37.774
827.824, 47.924
828.306, 45.066
828.788, 38.979
829.270, 31.680
829.752, 24.546
830.234, 30.473
830.716, 48.816
831.198, 63.522
831.681, 59.395
832.163, 48.671
832.645, 44.907
833.127, 48.239
833.609, 49.615
834.091, 41.758
834.573, 35.602
835.055, 37.883
835.537, 48.334
836.020, 47.640
836.502, 32.833
836.984, 19.964
837.466, 20.263
837.948, 29.250
838.430, 33.656
838.912, 34.272
839.394, 36.931
839.877, 50.280
840.359, 62.760
840.841, 66.034
841.323, 59.650
841.805, 52.614
842.287, 44.844
842.769, 37.625
843.251, 30.669
843.734, 24.410
844.216, 26.620
844.698, 37.182
845.180, 43.918
845.662, 31.190
846.144, 16.070
846.626, 21.817
847.108, 44.971
847.591, 63.147
848.073, 68.194
848.555, 66.169
849.037, 57.046
849.519, 42.525
850.001, 33.556
850.483, 30.742
850.965, 29.822
851.447, 29.547
851.930, 29.790
852.412, 28.916
852.894, 27.342
853.376, 28.251
853.858, 40.449
854.340, 50.100
854.822, 44.968
855.304, 27.945
855.786, 20.297
856.269, 28.724
856.751, 36.730
857.233, 39.187
857.715, 37.636
858.197, 35.933
858.679, 34.284
859.161, 35.798
859.643, 45.424
860.125, 55.314
860.608, 57.643
861.090, 54.578
861.572, 50.708
862.054, 47.656
862.536, 41.012
863.018, 26.855
863.500, 10.107
863.982, 5.900
864.464, 16.022
864.947, 24.436
865.429, 25.727
865.911, 23.388
866.393, 23.874
866.875, 25.462
867.357, 23.719
867.839, 10.988
868.321, 0.975
868.804, 1.143
869.286, 7.475
869.768, 10.801
870.250, 8.952
870.732, 10.045
871.214, 16.309
871.696, 24.774
872.178, 30.986
872.661, 34.850
873.143, 36.901
873.625, 37.972
874.107, 35.838
874.589, 24.481
875.071, 10.304
875.553, 2.490
876.035, 7.199
876.518, 12.412
877.000, 18.234
877.482, 23.766
877.964, 29.326
878.446, 34.510
878.928, 31.642
879.410, 17.758
879.892, 3.999
880.374, 1.576
880.857, 6.181
881.339, 13.279
881.821, 25.286
882.303, 31.152
882.785, 22.170
883.267, 11.546
883.749, 10.525
884.231, 20.808
884.713, 26.801
885.196, 27.718
885.678, 26.415
886.160, 25.388
886.642, 24.130
887.124, 21.141
887.606, 15.948
888.088, 12.759
888.570, 17.418
889.052, 21.220
889.534, 17.352
890.017, 4.348
890.499, 1.694
890.981, 0.261
891.463, 5.272
891.945, 11.697
892.427, 18.175
892.909, 20.131
893.391, 18.001
893.874, 17.219
894.356, 25.261
894.838, 31.650
895.320, 27.340
895.802, 13.118
896.284, 8.751
896.766, 18.456
897.248, 27.877
897.731, 32.008
898.213, 31.471
898.695, 27.069
899.177, 19.475
899.659, 11.721
900.141, 3.631
900.623, 2.236
901.105, 2.638
901.588, 0.720
902.070, 2.533
902.552, 2.690
903.034, 0.276
903.516, 6.241
903.998, 14.034
904.480, 16.438
904.962, 14.198
905.444, 12.094
905.927, 11.241
906.409, 11.803
906.891, 15.574
907.373, 20.333
907.855, 22.804
908.337, 20.234
908.819, 18.224
909.301, 18.046
909.783, 17.338
910.266, 12.498
910.748, 3.858
911.230, 3.601
911.712, 9.484
912.194, 12.738
912.676, 11.373
913.158, 7.365
913.640, 2.862
914.122, 1.929
914.605, 6.348
915.087, 10.772
915.569, 14.362
916.051, 16.923
916.533, 18.491
917.015, 15.521
917.497, 7.645
917.979, 2.783
918.461, 12.528
918.944, 24.810
919.426, 24.657
919.908, 12.219
920.390, 0.547
920.872, 9.013
921.354, 13.817
921.836, 11.556
922.318, 4.369
922.801, 1.504
923.283, 2.926
923.765, 6.229
924.247, 11.675
924.729, 17.092
925.211, 20.080
925.693, 20.687
926.175, 19.357
926.657, 15.185
927.140, 11.734
927.622, 10.050
928.104, 8.823
928.586, 5.232
929.068, 0.845
929.550, 3.390
930.032, 1.077
930.515, 4.552
930.997, 17.237
931.479, 30.111
931.961, 31.520
932.443, 10.976
932.925, 2.854
933.407, 2.218
933.889, 11.896
934.371, 14.876
934.854, 10.223
935.336, 8.169
935.818, 8.991
936.300, 11.648
936.782, 17.325
937.264, 23.065
937.746, 23.821
938.228, 19.531
938.710, 17.935
939.193, 22.992
939.675, 29.676
940.157, 37.798
940.639, 46.191
941.121, 42.132
941.603, 25.394
942.085, 14.238
942.567, 20.062
943.049, 34.304
943.532, 50.499
944.014, 66.495
944.496, 76.141
944.978, 72.865
945.460, 68.727
945.942, 67.074
946.424, 65.270
946.906, 54.415
947.388, 34.411
947.871, 31.901
948.353, 55.861
948.835, 84.001
949.317, 93.160
949.799, 91.103
950.281, 86.916
950.763, 79.782
951.245, 77.931
951.728, 82.863
952.210, 92.190
952.692, 106.485
953.174, 125.527
953.656, 136.811
954.138, 140.102
954.620, 139.059
955.102, 130.094
955.584, 122.772
956.067, 129.827
956.549, 150.339
957.031, 162.187
957.513, 154.448
957.995, 149.340
958.477, 154.052
958.959, 165.809
959.442, 174.337
959.924, 180.283
960.406, 190.179
960.888, 211.680
961.370, 230.406
961.852, 232.054
962.334, 223.901
962.816, 217.587
963.298, 209.696
963.781, 213.573
964.263, 233.306
964.745, 258.927
965.227, 279.842
965.709, 296.886
966.191, 312.058
966.673, 325.692
967.155, 338.777
967.638, 351.062
968.120, 364.417
968.602, 380.277
969.084, 398.266
969.566, 420.769
970.048, 450.400
970.530, 475.566
971.012, 485.005
971.494, 486.911
971.977, 504.240
972.459, 534.409
972.941, 565.746
973.423, 591.295
973.905, 617.886
974.387, 650.621
974.869, 686.446
975.351, 717.351
975.833, 740.227
976.316, 769.428
976.798, 808.321
977.280, 853.510
977.762, 905.402
978.244, 957.740
978.726, 995.451
979.208, 1005.026
979.690, 1033.750
980.172, 1115.172
980.655, 1207.651
981.137, 1282.174
981.619, 1336.344
982.101, 1395.126
982.583, 1458.465
983.065, 1527.622
983.547, 1602.894
984.029, 1684.954
984.511, 1772.813
984.994, 1867.588
985.476, 1974.867
985.958, 2089.824
986.440, 2228.698
986.922, 2405.030
987.404, 2600.145
987.886, 2761.273
988.369, 2894.835
988.851, 3047.841
989.333, 3239.794
989.815, 3444.295
990.297, 3630.756
990.779, 3820.759
991.261, 4037.284
991.743, 4258.001
992.225, 4563.723
992.708, 4948.561
993.190, 5426.773
993.672, 5991.837
994.154, 6663.755
994.636, 7527.488
995.118, 8583.443
995.600, 9737.951
996.082, 10945.448
996.565, 12228.902
997.047, 13585.039
997.529, 15020.063
998.011, 16546.510
998.493, 18148.703
998.975, 19851.223
999.457, 21664.732
999.939, 23584.965
1000.421, 25599.121
1000.904, 27782.854
1001.386, 30238.352
1001.868, 32956.055
1002.350, 36067.113
1002.832, 39458.773
1003.314, 43433.691
1003.796, 48186.082
1004.278, 53682.250
1004.760, 60314.094
1005.243, 68034.289
1005.725, 77008.344
1006.207, 89154.500
1006.689, 101235.773
1007.171, 111490.805
1007.653, 119433.852
1008.135, 119671.625
1008.617, 109735.383
1009.099, 96486.648
1009.582, 80617.203
1010.064, 64010.000
1010.546, 50335.016
1011.028, 39575.820
1011.510, 31102.637
1011.992, 25029.777
1012.474, 20334.344
1012.956, 16827.787
1013.438, 14193.431
1013.921, 12047.882
1014.403, 10451.862
1014.885, 9095.504
1015.367, 7983.290
1015.849, 7055.697
1016.331, 6292.534
1016.813, 5656.470
1017.295, 5094.710
1017.778, 4601.754
1018.260, 4158.896
1018.742, 3764.864
1019.224, 3425.103
1019.706, 3149.595
1020.188, 2922.829
1020.670, 2703.231
1021.152, 2491.567
1021.634, 2301.201
1022.117, 2138.534
1022.599, 1997.117
1023.081, 1883.891
1023.563, 1782.630
1024.045, 1672.948
1024.527, 1542.600
1025.009, 1428.409
1025.491, 1330.667
1025.974, 1248.155
1026.456, 1187.085
1026.938, 1139.497
1027.420, 1083.041
1027.902, 1018.699
1028.384, 954.431
1028.866, 885.721
1029.348, 827.671
1029.830, 792.750
1030.313, 770.462
1030.795, 739.312
1031.277, 699.166
1031.759, 657.458
1032.241, 615.625
1032.723, 572.919
1033.205, 521.634
1033.687, 473.556
1034.170, 446.439
1034.652, 451.919
1035.134, 445.491
1035.616, 418.858
1036.098, 389.771
1036.580, 368.230
1037.062, 352.584
1037.544, 336.471
1038.026, 319.804
1038.509, 301.857
1038.991, 277.755
1039.473, 257.352
1039.955, 251.551
1040.437, 250.653
1040.919, 236.114
1041.401, 204.284
1041.883, 179.537
1042.365, 165.274
1042.848, 156.156
1043.330, 147.789
1043.812, 140.700
1044.294, 136.642
1044.776, 136.328
1045.258, 131.906
1045.740, 119.110
1046.222, 106.367
1046.705, 95.584
1047.187, 87.827
1047.669, 90.573
1048.151, 101.014
1048.633, 106.249
1049.115, 99.054
1049.597, 88.263
1050.079, 75.468
1050.562, 63.614
1051.044, 56.627
1051.526, 56.055
1052.008, 54.270
1052.490, 51.233
1052.972, 45.661
1053.454, 32.081
1053.936, 17.893
1054.418, 14.346
1054.901, 20.640
1055.383, 25.248
1055.865, 24.811
1056.347, 22.789
1056.829, 19.711
1057.311, 15.646
1057.793, 9.191
1058.275, 1.652
1058.757, 0.848
1059.240, 4.959
1059.722, 9.754
1060.204, 6.591
1060.686, 1.200
1061.168, 1.558
1061.650, 1.319
1062.132, 2.349
1062.614, 4.852
1063.097, 6.332
1063.579, 4.074
1064.061, 0.814
1064.543, 0.413
1065.025, 0.019
1065.507, 0.923
1065.989, 1.379
1066.471, 4.037
1066.953, 10.453
1067.436, 16.774
1067.918, 17.040
1068.400, 13.333
1068.882, 12.859
1069.364, 16.436
1069.846, 19.171
1070.328, 20.115
1070.810, 17.484
1071.292, 7.316
1071.775, 7.193
1072.257, 8.221
1072.739, 4.454
1073.221, 15.474
1073.703, 19.438
1074.185, 20.591
1074.667, 23.492
1075.149, 26.201
1075.631, 25.853
1076.114, 19.361
1076.596, 17.310
1077.078, 21.695
1077.560, 24.737
1078.042, 18.229
1078.524, 7.213
1079.006, 4.641
1079.488, 8.261
1079.971, 8.404
1080.453, 2.250
1080.935, 13.169
1081.417, 24.368
1081.899, 32.031
1082.381, 27.301
1082.863, 11.985
1083.345, 4.696
1083.828, 8.361
1084.310, 13.509
1084.792, 10.069
1085.274, 7.682
1085.756, 17.370
1086.238, 37.557
1086.720, 43.879
1087.202, 33.701
1087.684, 26.371
1088.167, 30.092
1088.649, 37.715
1089.131, 42.207
1089.613, 43.045
1090.095, 38.359
1090.577, 20.378
1091.059, 14.870
1091.541, 28.201
1092.023, 43.788
1092.506, 48.666
1092.988, 46.211
1093.470, 48.160
1093.952, 53.694
1094.434, 58.463
1094.916, 59.827
1095.398, 60.474
1095.880, 58.906
1096.363, 58.773
1096.845, 67.016
1097.327, 83.295
1097.809, 96.494
1098.291, 105.305
1098.773, 111.722
1099.255, 118.617
1099.737, 122.939
1100.219, 119.332
1100.702, 109.058
1101.184, 108.157
1101.666, 118.662
1102.148, 129.060
1102.630, 135.651
1103.112, 141.123
1103.594, 153.292
1104.076, 165.172
1104.558, 163.370
1105.041, 134.691
1105.523, 126.035
1106.005, 148.812
1106.487, 175.028
1106.969, 186.153
1107.451, 187.874
1107.933, 201.565
1108.415, 222.738
1108.898, 234.387
1109.380, 216.605
1109.862, 203.995
1110.344, 209.926
1110.826, 222.980
1111.308, 229.358
1111.790, 229.965
1112.272, 239.928
1112.755, 260.062
1113.237, 281.843
1113.719, 302.113
1114.201, 318.897
1114.683, 327.543
1115.165, 331.411
1115.647, 343.756
1116.129, 366.477
1116.611, 383.216
1117.094, 388.492
1117.576, 394.992
1118.058, 420.906
1118.540, 453.670
1119.022, 477.414
1119.504, 487.943
1119.986, 506.713
1120.468, 535.566
1120.950, 569.089
1121.433, 605.928
1121.915, 645.558
1122.397, 686.109
1122.879, 727.542
1123.361, 768.431
1123.843, 803.389
1124.325, 848.156
1124.807, 906.870
1125.290, 971.566
1125.772, 1034.836
1126.254, 1099.077
1126.736, 1180.005
1127.218, 1275.558
1127.700, 1375.322
1128.182, 1468.138
1128.664, 1569.456
1129.146, 1684.597
1129.629, 1812.568
1130.111, 1953.267
1130.593, 2106.275
1131.075, 2281.387
1131.557, 2478.911
1132.039, 2678.882
1132.521, 2855.755
1133.003, 3037.719
1133.485, 3253.538
1133.968, 3494.704
1134.450, 3725.509
1134.932, 3945.050
1135.414, 4166.315
1135.896, 4394.836
1136.378, 4627.562
1136.860, 4858.149
1137.342, 5085.832
1137.825, 5312.143
1138.307, 5539.337
1138.789, 5740.735
1139.271, 5922.347
1139.753, 6054.143
1140.235, 6127.706
1140.717, 6137.509
1141.199, 6066.880
1141.682, 5930.259
1142.164, 5747.967
1142.646, 5519.570
1143.128, 5256.413
1143.610, 4960.851
1144.092, 4638.037
1144.574, 4280.080
1145.056, 3902.324
1145.538, 3533.797
1146.021, 3179.746
1146.503, 2854.989
1146.985, 2562.880
1147.467, 2300.747
1147.949, 2069.069
1148.431, 1863.570
1148.913, 1687.923
1149.395, 1539.378
1149.877, 1403.145
1150.360, 1279.571
1150.842, 1166.139
1151.324, 1061.342
1151.806, 966.609
1152.288, 883.698
1152.770, 810.105
1153.252, 741.722
1153.734, 678.620
1154.217, 623.591
1154.699, 577.228
1155.181, 533.411
1155.663, 483.909
1156.145, 438.376
1156.627, 405.644
1157.109, 383.642
1157.591, 365.720
1158.073, 352.350
1158.556, 332.778
1159.038, 300.989
1159.520, 270.741
1160.002, 259.685
1160.484, 254.802
1160.966, 241.069
1161.448, 215.916
1161.930, 194.887
1162.412, 178.016
1162.895, 164.710
1163.377, 155.280
1163.859, 148.474
1164.341, 143.916
1164.823, 140.688
1165.305, 137.793
1165.787, 137.195
1166.269, 129.370
1166.752, 112.804
1167.234, 95.145
1167.716, 77.690
1168.198, 65.334
1168.680, 72.604
1169.162, 91.316
1169.644, 98.067
1170.126, 72.670
1170.609, 58.231
1171.091, 60.463
1171.573, 66.547
1172.055, 61.797
1172.537, 51.883
1173.019, 49.760
1173.501, 54.530
1173.983, 55.579
1174.465, 43.583
1174.948, 35.894
1175.430, 36.808
1175.912, 40.547
1176.394, 39.385
1176.876, 34.452
1177.358, 26.831
1177.840, 16.770
1178.322, 10.942
1178.804, 18.902
1179.287, 22.283
1179.769, 12.618
1180.251, 1.874
1180.733, 1.236
1181.215, 10.414
1181.697, 20.116
1182.179, 25.269
1182.661, 27.332
1183.144, 22.741
1183.626, 19.818
1184.108, 23.439
1184.590, 31.231
1185.072, 34.588
1185.554, 34.166
1186.036, 32.789
1186.518, 31.201
1187.000, 29.197
1187.483, 25.011
1187.965, 22.085
1188.447, 23.725
1188.929, 28.945
1189.411, 29.216
1189.893, 25.178
1190.375, 20.554
1190.857, 17.388
1191.339, 13.593
1191.822, 5.470
1192.304, 1.578
1192.786, 1.104
1193.268, 7.054
1193.750, 5.205
1194.232, 5.556
1194.714, 12.247
1195.196, 0.738
1195.678, 11.089
1196.161, 0.451
1196.643, 16.705
1197.125, 11.752
1197.607, 15.524
1198.089, 18.829
1198.571, 3.453
1199.053, 22.512
1199.535, 15.940
1200.018, 3.617
1200.500, 3.907
1200.982, 8.460
1201.464, 14.629
1201.946, 22.668
1202.428, 23.724
1202.910, 16.662
1203.392, 10.228
1203.875, 12.852
1204.357, 16.724
1204.839, 17.742
1205.321, 15.523
1205.803, 6.341
1206.285, 10.471
1206.767, 12.031
1207.249, 6.968
1207.731, 26.534
1208.214, 28.722
1208.696, 25.917
1209.178, 28.314
1209.660, 34.094
1210.142, 34.104
1210.624, 28.179
1211.106, 18.980
1211.588, 5.329
1212.070, 2.576
1212.553, 11.014
1213.035, 28.337
1213.517, 33.227
1213.999, 27.997
1214.481, 25.199
1214.963, 24.648
1215.445, 25.549
1215.927, 28.721
1216.410, 29.620
1216.892, 18.362
1217.374, 7.834
1217.856, 13.064
1218.338, 32.684
1218.820, 39.119
1219.302, 32.421
1219.784, 23.051
1220.266, 13.270
1220.749, 6.273
1221.231, 7.204
1221.713, 10.104
1222.195, 7.183
1222.677, 2.020
1223.159, 3.236
1223.641, 22.453
1224.123, 37.990
1224.605, 40.480
1225.088, 37.286
1225.570, 29.068
1226.052, 20.813
1226.534, 18.862
1227.016, 23.988
1227.498, 22.896
1227.980, 15.936
1228.462, 9.896
1228.945, 6.812
1229.427, 6.896
1229.909, 14.079
1230.391, 21.880
1230.873, 21.986
1231.355, 13.900
1231.837, 7.561
1232.319, 3.229
1232.802, 2.411
1233.284, 7.544
1233.766, 14.735
1234.248, 23.967
1234.730, 32.795
1235.212, 37.620
1235.694, 38.461
1236.176, 42.416
1236.658, 48.964
1237.141, 50.498
1237.623, 34.404
1238.105, 22.363
1238.587, 32.778
1239.069, 47.983
1239.551, 42.589
1240.033, 19.762
1240.515, 12.266
1240.997, 21.386
1241.480, 31.840
1241.962, 36.265
1242.444, 38.161
1242.926, 38.006
1243.408, 37.100
1243.890, 36.560
1244.372, 36.018
1244.854, 35.228
1245.337, 31.164
1245.819, 32.796
1246.301, 47.027
1246.783, 52.894
1247.265, 39.397
1247.747, 19.904
1248.229, 20.497
1248.711, 35.575
1249.193, 48.484
1249.676, 57.115
1250.158, 54.539
1250.640, 31.445
1251.122, 14.298
1251.604, 11.181
1252.086, 16.269
1252.568, 21.989
1253.050, 27.571
1253.532, 33.410
1254.015, 38.990
1254.497, 40.276
1254.979, 30.202
1255.461, 25.450
1255.943, 32.548
1256.425, 41.706
1256.907, 33.616
1257.389, 17.713
1257.872, 11.764
1258.354, 17.569
1258.836, 23.979
1259.318, 30.256
1259.800, 31.629
1260.282, 25.495
1260.764, 17.327
1261.246, 14.129
1261.729, 14.594
1262.211, 18.202
1262.693, 24.822
1263.175, 25.533
1263.657, 17.793
1264.139, 16.579
1264.621, 28.945
1265.103, 40.686
1265.585, 31.080
1266.068, 13.443
1266.550, 2.379
1267.032, 0.398
1267.514, 1.326
1267.996, 0.615
1268.478, 3.632
1268.960, 13.358
1269.442, 22.028
1269.924, 24.082
1270.407, 21.201
1270.889, 10.416
1271.371, 5.764
1271.853, 3.253
1272.335, 17.681
1272.817, 32.854
1273.299, 34.394
1273.781, 31.174
1274.264, 26.323
1274.746, 22.892
1275.228, 24.338
1275.710, 28.998
1276.192, 26.223
1276.674, 17.828
1277.156, 17.458
1277.638, 31.662
1278.120, 43.966
1278.603, 44.375
1279.085, 40.840
1279.567, 36.685
1280.049, 32.263
1280.531, 29.163
1281.013, 28.662
1281.495, 30.341
1281.977, 34.006
1282.459, 31.670
1282.942, 20.129
1283.424, 15.055
1283.906, 24.770
1284.388, 38.909
1284.870, 26.622
1285.352, 2.058
1285.834, 2.416
1286.316, 27.214
1286.799, 45.614
1287.281, 45.925
1287.763, 43.093
1288.245, 44.325
1288.727, 44.927
1289.209, 33.911
1289.691, 12.639
1290.173, 5.809
1290.656, 11.685
1291.138, 11.602
1291.620, 4.567
1292.102, 0.024
1292.584, 1.862
1293.066, 0.000
##END=



