##NAMES=Helvine
##RRUFFID=R060621
##IDEAL CHEMISTRY=Mn^2+^_4_(BeSiO_4_)_3_S
##LOCALITY=Foote mine, Kings Mountain District, Cleveland County, North Carolina, USA
##OWNER=RRUFF
##SOURCE=Michael Scott
##DESCRIPTION=Yellowish-brown tetrahedra
##STATUS=The identification of this mineral is confirmed by single-crystal X-ray diffraction and chemical analysis.
##URL=rruff.info/R060621
##MEASURED CHEMISTRY=(Mn^2+^_3.72_Zn_0.18_Fe^3+^_0.08_Ca_0.02_)_Σ=4_Be_3.00_((Si_0.97_Al_0.03_)_Σ=1_O_4_)_3_S_1.00_; BeO assumed by stoichiometry
121.041, 0.000
121.523, 222.695
122.005, 1191.590
122.487, 2478.832
122.969, 3917.438
123.451, 5431.805
123.934, 6990.582
124.416, 8520.980
124.898, 10055.477
125.380, 11686.504
125.862, 13489.273
126.344, 15371.375
126.826, 17361.953
127.308, 19547.523
127.791, 21424.883
128.273, 22612.312
128.755, 23082.531
129.237, 22690.336
129.719, 21034.375
130.201, 18397.922
130.683, 15620.828
131.165, 12713.488
131.648, 9885.883
132.130, 7591.172
132.612, 5997.055
133.094, 4854.980
133.576, 3954.988
134.058, 3245.668
134.540, 2664.688
135.022, 2395.008
135.504, 2431.199
135.986, 2572.043
136.469, 2832.488
136.951, 3156.445
137.433, 3521.375
137.915, 3961.574
138.397, 4269.082
138.879, 4392.762
139.361, 4339.047
139.844, 4026.211
140.326, 3383.395
140.808, 2552.918
141.290, 1800.969
141.772, 1121.477
142.254, 524.914
142.736, 18.535
143.218, 409.066
143.700, 725.266
144.182, 932.379
144.665, 1035.031
145.147, 1041.098
145.629, 922.477
146.111, 741.805
146.593, 544.719
147.075, 379.695
147.557, 127.762
148.040, 250.977
148.522, 760.406
149.004, 1233.656
149.486, 1648.629
149.968, 2041.223
150.450, 2445.402
150.932, 2868.180
151.414, 3306.207
151.896, 3750.355
152.378, 4201.141
152.861, 4694.074
153.343, 5262.445
153.825, 5876.207
154.307, 6479.598
154.789, 7120.070
155.271, 7710.957
155.753, 8243.473
156.235, 8767.500
156.718, 9124.293
157.200, 9207.766
157.682, 9092.215
158.164, 8976.859
158.646, 8855.980
159.128, 8781.094
159.610, 8780.215
160.092, 8817.141
160.574, 8965.941
161.057, 9218.031
161.539, 9581.211
162.021, 10122.371
162.503, 10919.617
162.985, 11876.402
163.467, 12924.148
163.949, 14049.434
164.431, 15286.031
164.913, 16671.781
165.396, 18216.266
165.878, 19810.664
166.360, 21432.359
166.842, 23003.297
167.324, 24485.211
167.806, 25818.254
168.288, 27138.363
168.770, 28541.730
169.253, 30055.855
169.735, 31616.480
170.217, 33200.672
170.699, 34798.840
171.181, 36381.117
171.663, 37988.938
172.145, 39543.172
172.627, 41064.594
173.109, 42687.262
173.592, 43998.617
174.074, 44749.766
174.556, 44902.598
175.038, 44327.785
175.520, 42874.871
176.002, 40622.125
176.484, 37710.035
176.966, 33852.996
177.449, 29618.738
177.931, 25619.875
178.413, 21848.688
178.895, 18437.594
179.377, 15595.289
179.859, 13240.609
180.341, 11256.539
180.823, 9678.988
181.305, 8407.562
181.788, 7324.230
182.270, 6425.832
182.752, 5664.723
183.234, 5011.641
183.716, 4460.129
184.198, 4011.648
184.680, 3681.234
185.162, 3453.320
185.645, 3273.512
186.127, 3146.176
186.609, 3049.320
187.091, 2956.043
187.573, 2867.477
188.055, 2795.879
188.537, 2752.258
189.019, 2733.070
189.501, 2715.238
189.984, 2688.430
190.466, 2677.473
190.948, 2749.602
191.430, 2909.266
191.912, 3058.633
192.394, 3123.070
192.876, 3110.957
193.358, 3118.715
193.840, 3167.375
194.323, 3235.434
194.805, 3278.199
195.287, 3298.367
195.769, 3281.828
196.251, 3220.766
196.733, 3116.605
197.215, 2968.465
197.697, 2766.730
198.180, 2521.797
198.662, 2268.840
199.144, 2006.008
199.626, 1744.609
200.108, 1483.766
200.590, 1212.004
201.072, 952.469
201.554, 721.828
202.036, 525.824
202.519, 341.930
203.001, 167.645
203.483, 29.543
203.965, 34.578
204.447, 13.191
204.929, 19.199
205.411, 46.207
205.893, 63.445
206.376, 53.465
206.858, 6.531
207.340, 56.488
207.822, 100.176
208.304, 116.156
208.786, 138.457
209.268, 179.461
209.750, 239.758
210.232, 308.270
210.715, 401.598
211.197, 483.652
211.679, 474.078
212.161, 340.438
212.643, 185.695
213.125, 57.426
213.607, 34.621
214.089, 151.539
214.572, 320.465
215.054, 503.531
215.536, 596.898
216.018, 573.844
216.500, 507.316
216.982, 420.051
217.464, 280.891
217.946, 207.730
218.428, 213.883
218.911, 288.883
219.393, 399.477
219.875, 570.637
220.357, 737.141
220.839, 843.449
221.321, 841.172
221.803, 906.781
222.285, 1076.734
222.768, 1339.785
223.250, 1592.266
223.732, 1836.652
224.214, 2074.504
224.696, 2308.707
225.178, 2529.527
225.660, 2767.859
226.142, 3020.758
226.624, 3291.840
227.107, 3615.203
227.589, 4014.629
228.071, 4437.152
228.553, 4828.730
229.035, 5183.574
229.517, 5523.754
229.999, 5850.809
230.481, 6166.488
230.964, 6481.336
231.446, 6805.477
231.928, 7118.562
232.410, 7395.348
232.892, 7634.547
233.374, 7842.781
233.856, 8038.719
234.338, 8239.762
234.820, 8288.844
235.303, 8142.094
235.785, 7879.957
236.267, 7603.207
236.749, 7340.484
237.231, 7014.102
237.713, 6580.602
238.195, 6004.793
238.677, 5513.977
239.160, 5130.078
239.642, 4817.488
240.124, 4527.730
240.606, 4270.145
241.088, 4020.945
241.570, 3770.934
242.052, 3514.266
242.534, 3279.359
243.016, 3066.770
243.499, 2874.230
243.981, 2697.492
244.463, 2532.090
244.945, 2385.281
245.427, 2264.414
245.909, 2186.250
246.391, 2072.148
246.873, 1899.113
247.355, 1696.191
247.838, 1528.062
248.320, 1412.812
248.802, 1298.742
249.284, 1162.723
249.766, 989.984
250.248, 844.020
250.730, 737.508
251.212, 656.062
251.695, 568.367
252.177, 480.219
252.659, 383.477
253.141, 269.633
253.623, 117.645
254.105, 14.457
254.587, 22.348
255.069, 14.289
255.551, 19.090
256.034, 44.020
256.516, 67.473
256.998, 87.023
257.480, 124.074
257.962, 97.723
258.444, 20.062
258.926, 191.254
259.408, 307.957
259.891, 337.133
260.373, 363.734
260.855, 429.742
261.337, 544.980
261.819, 657.496
262.301, 761.469
262.783, 867.242
263.265, 1008.344
263.747, 1201.977
264.229, 1396.762
264.712, 1556.535
265.194, 1651.035
265.676, 1784.152
266.158, 1972.914
266.640, 2211.746
267.122, 2447.992
267.604, 2665.762
268.086, 2883.711
268.569, 3119.695
269.051, 3393.062
269.533, 3642.898
270.015, 3849.273
270.497, 4047.410
270.979, 4329.746
271.461, 4707.391
271.943, 5128.211
272.426, 5571.445
272.908, 6045.172
273.390, 6465.527
273.872, 6797.398
274.354, 7083.961
274.836, 7478.840
275.318, 8010.430
275.800, 8537.438
276.282, 8956.746
276.765, 9257.105
277.247, 9563.160
277.729, 9895.938
278.211, 10235.496
278.693, 10527.402
279.175, 10763.375
279.657, 10965.246
280.139, 11157.363
280.621, 11341.801
281.104, 11462.887
281.586, 11513.406
282.068, 11496.449
282.550, 11416.406
283.032, 11271.371
283.514, 11078.062
283.996, 10840.656
284.478, 10560.750
284.961, 10259.316
285.443, 9936.668
285.925, 9597.277
286.407, 9243.609
286.889, 8873.148
287.371, 8527.578
287.853, 8242.586
288.335, 8012.188
288.818, 7787.598
289.300, 7562.973
289.782, 7344.570
290.264, 7137.301
290.746, 6940.664
291.228, 6786.293
291.710, 6719.531
292.192, 6718.094
292.674, 6692.031
293.156, 6628.969
293.639, 6539.758
294.121, 6430.113
294.603, 6304.383
295.085, 6193.195
295.567, 6143.156
296.049, 6125.703
296.531, 6058.992
297.013, 5927.352
297.496, 5764.527
297.978, 5598.562
298.460, 5436.207
298.942, 5301.824
299.424, 5209.809
299.906, 5156.777
300.388, 5139.430
300.870, 5162.016
301.353, 5199.301
301.835, 5211.398
302.317, 5207.652
302.799, 5228.770
303.281, 5332.758
303.763, 5459.203
304.245, 5522.805
304.727, 5507.777
305.209, 5445.324
305.691, 5361.410
306.174, 5251.512
306.656, 5107.098
307.138, 4913.527
307.620, 4688.332
308.102, 4452.641
308.584, 4211.047
309.066, 3947.844
309.548, 3584.789
310.031, 3195.922
310.513, 2912.535
310.995, 2933.727
311.477, 2990.340
311.959, 2860.152
312.441, 2504.566
312.923, 2121.020
313.405, 1802.434
313.888, 1529.582
314.370, 1279.754
314.852, 956.789
315.334, 715.629
315.816, 716.000
316.298, 1008.223
316.780, 1197.254
317.262, 1017.961
317.744, 668.672
318.227, 393.465
318.709, 336.258
319.191, 304.848
319.673, 216.957
320.155, 63.984
320.637, 60.832
321.119, 138.113
321.601, 173.141
322.083, 171.203
322.566, 62.953
323.048, 9.395
323.530, 22.238
324.012, 163.453
324.494, 242.098
324.976, 180.184
325.458, 76.699
325.940, 8.355
326.422, 40.039
326.905, 46.621
327.387, 2.707
327.869, 89.301
328.351, 173.469
328.833, 265.621
329.315, 338.559
329.797, 375.336
330.280, 363.031
330.762, 332.516
331.244, 271.582
331.726, 189.832
332.208, 148.391
332.690, 190.398
333.172, 224.992
333.654, 196.930
334.136, 65.328
334.618, 40.141
335.101, 115.109
335.583, 158.578
336.065, 162.805
336.547, 110.680
337.029, 53.531
337.511, 22.812
337.993, 28.812
338.475, 19.586
338.958, 10.367
339.440, 49.414
339.922, 66.250
340.404, 51.680
340.886, 50.750
341.368, 99.625
341.850, 200.859
342.332, 254.930
342.815, 245.953
343.297, 219.828
343.779, 259.773
344.261, 369.625
344.743, 461.422
345.225, 476.852
345.707, 436.852
346.189, 468.266
346.671, 582.352
347.154, 716.445
347.636, 777.039
348.118, 781.477
348.600, 833.961
349.082, 1008.719
349.564, 1246.008
350.046, 1415.672
350.528, 1514.234
351.010, 1586.375
351.493, 1658.555
351.975, 1732.703
352.457, 1819.484
352.939, 1938.164
353.421, 2056.367
353.903, 2127.750
354.385, 2157.539
354.867, 2186.844
355.349, 2262.703
355.832, 2352.625
356.314, 2411.758
356.796, 2411.336
357.278, 2405.062
357.760, 2459.117
358.242, 2550.297
358.724, 2590.984
359.207, 2486.812
359.689, 2340.898
360.171, 2237.703
360.653, 2212.438
361.135, 2191.688
361.617, 2132.664
362.099, 2052.867
362.581, 1993.250
363.063, 2009.453
363.546, 2014.055
364.028, 1954.914
364.510, 1799.422
364.992, 1660.094
365.474, 1584.234
365.956, 1533.727
366.438, 1451.836
366.920, 1292.266
367.402, 1138.609
367.885, 1014.414
368.367, 925.438
368.849, 849.727
369.331, 777.844
369.813, 724.984
370.295, 708.414
370.777, 767.219
371.259, 805.734
371.741, 807.828
372.224, 773.641
372.706, 718.820
373.188, 608.547
373.670, 517.898
374.152, 516.680
374.634, 643.680
375.116, 734.844
375.598, 759.648
376.081, 734.094
376.563, 725.133
377.045, 737.938
377.527, 751.273
378.009, 763.102
378.491, 773.305
378.973, 728.383
379.455, 615.750
379.938, 472.984
380.420, 371.086
380.902, 306.875
381.384, 264.875
381.866, 232.352
382.348, 214.742
382.830, 235.422
383.312, 304.242
383.794, 379.047
384.276, 393.953
384.759, 366.023
385.241, 358.344
385.723, 404.414
386.205, 478.859
386.687, 551.531
387.169, 619.914
387.651, 666.539
388.134, 666.500
388.616, 633.625
389.098, 588.477
389.580, 511.594
390.062, 448.531
390.544, 462.227
391.026, 533.805
391.508, 569.875
391.990, 479.938
392.473, 358.320
392.955, 285.500
393.437, 326.062
393.919, 348.023
394.401, 279.586
394.883, 159.070
395.365, 69.547
395.847, 51.391
396.329, 55.008
396.812, 58.070
397.294, 50.305
397.776, 60.547
398.258, 118.320
398.740, 185.578
399.222, 211.453
399.704, 155.008
400.186, 99.977
400.668, 57.703
401.151, 24.141
401.633, 11.805
402.115, 26.766
402.597, 60.469
403.079, 116.781
403.561, 231.133
404.043, 285.883
404.525, 240.164
405.008, 124.523
405.490, 76.148
405.972, 104.406
406.454, 163.703
406.936, 246.852
407.418, 358.922
407.900, 392.773
408.382, 308.203
408.865, 184.375
409.347, 179.250
409.829, 294.070
410.311, 418.516
410.793, 501.992
411.275, 551.938
411.757, 587.836
412.239, 610.875
412.721, 621.961
413.203, 604.562
413.686, 574.344
414.168, 571.500
414.650, 639.500
415.132, 719.398
415.614, 733.891
416.096, 689.250
416.578, 649.492
417.060, 670.352
417.543, 711.695
418.025, 726.906
418.507, 692.000
418.989, 651.188
419.471, 635.914
419.953, 635.227
420.435, 617.516
420.917, 563.703
421.400, 492.641
421.882, 408.523
422.364, 299.984
422.846, 227.102
423.328, 211.758
423.810, 238.703
424.292, 285.445
424.774, 406.602
425.256, 482.094
425.738, 480.922
426.221, 403.219
426.703, 337.148
427.185, 263.555
427.667, 220.570
428.149, 244.594
428.631, 366.359
429.113, 468.648
429.595, 535.797
430.078, 576.148
430.560, 612.891
431.042, 640.781
431.524, 683.352
432.006, 760.383
432.488, 870.969
432.970, 965.898
433.452, 1039.117
433.935, 1110.992
434.417, 1224.484
434.899, 1370.516
435.381, 1484.180
435.863, 1505.938
436.345, 1489.641
436.827, 1561.797
437.309, 1720.609
437.791, 1871.086
438.274, 1881.320
438.756, 1841.719
439.238, 1905.820
439.720, 2177.352
440.202, 2466.125
440.684, 2601.750
441.166, 2625.234
441.648, 2665.789
442.130, 2802.461
442.613, 2964.977
443.095, 3104.555
443.577, 3202.945
444.059, 3320.156
444.541, 3550.195
445.023, 3787.719
445.505, 3898.688
445.987, 3822.594
446.470, 3651.445
446.952, 3373.320
447.434, 2983.664
447.916, 2631.438
448.398, 2326.484
448.880, 2048.969
449.362, 1782.664
449.844, 1511.648
450.327, 1292.914
450.809, 1139.508
451.291, 1034.289
451.773, 933.461
452.255, 837.406
452.737, 739.586
453.219, 626.531
453.701, 497.164
454.183, 408.430
454.665, 361.914
455.148, 344.492
455.630, 367.523
456.112, 419.859
456.594, 413.703
457.076, 286.180
457.558, 113.117
458.040, 39.016
458.522, 55.453
459.005, 86.188
459.487, 89.297
459.969, 69.852
460.451, 31.867
460.933, 28.258
461.415, 93.219
461.897, 159.844
462.379, 221.062
462.862, 264.195
463.344, 271.094
463.826, 268.828
464.308, 279.906
464.790, 308.469
465.272, 301.648
465.754, 207.617
466.236, 94.602
466.718, 17.984
467.201, 16.672
467.683, 9.867
468.165, 5.250
468.647, 28.180
469.129, 63.570
469.611, 128.430
470.093, 177.102
470.575, 183.562
471.057, 134.352
471.540, 104.477
472.022, 88.281
472.504, 97.844
472.986, 179.250
473.468, 343.180
473.950, 421.961
474.432, 341.023
474.914, 159.148
475.397, 47.445
475.879, 6.750
476.361, 17.094
476.843, 68.602
477.325, 130.031
477.807, 159.805
478.289, 143.273
478.771, 113.781
479.254, 95.758
479.736, 88.523
480.218, 92.070
480.700, 136.055
481.182, 168.945
481.664, 161.859
482.146, 114.805
482.628, 27.516
483.110, 154.781
483.592, 340.672
484.075, 458.664
484.557, 418.711
485.039, 392.641
485.521, 396.891
486.003, 428.484
486.485, 481.008
486.967, 600.969
487.449, 683.352
487.931, 687.234
488.414, 601.164
488.896, 529.391
489.378, 486.430
489.860, 443.195
490.342, 344.617
490.824, 173.547
491.306, 113.062
491.789, 235.391
492.271, 459.680
492.753, 582.148
493.235, 604.320
493.717, 594.562
494.199, 589.898
494.681, 584.352
495.163, 561.688
495.645, 516.734
496.128, 471.688
496.610, 444.727
497.092, 431.758
497.574, 425.727
498.056, 411.094
498.538, 414.852
499.020, 482.031
499.502, 595.414
499.984, 663.305
500.467, 610.977
500.949, 532.586
501.431, 481.852
501.913, 462.602
502.395, 479.305
502.877, 551.727
503.359, 655.094
503.841, 751.539
504.323, 811.477
504.806, 906.898
505.288, 1066.477
505.770, 1277.812
506.252, 1447.102
506.734, 1568.875
507.216, 1656.352
507.698, 1709.766
508.181, 1727.961
508.663, 1737.742
509.145, 1733.492
509.627, 1743.555
510.109, 1833.836
510.591, 1989.789
511.073, 2117.586
511.555, 2145.898
512.037, 2141.984
512.519, 2226.781
513.002, 2391.742
513.484, 2550.055
513.966, 2614.633
514.448, 2654.062
514.930, 2744.516
515.412, 2919.586
515.894, 3094.469
516.376, 3227.992
516.859, 3337.656
517.341, 3449.828
517.823, 3566.844
518.305, 3688.953
518.787, 3811.844
519.269, 3935.250
519.751, 4070.617
520.233, 4249.555
520.716, 4412.516
521.198, 4517.961
521.680, 4541.375
522.162, 4585.000
522.644, 4659.383
523.126, 4748.758
523.608, 4837.930
524.090, 4933.922
524.572, 4976.023
525.055, 4902.148
525.537, 4762.922
526.019, 4746.672
526.501, 4852.492
526.983, 4954.555
527.465, 4947.430
527.947, 4865.758
528.429, 4764.047
528.911, 4637.984
529.394, 4536.281
529.876, 4530.109
530.358, 4571.578
530.840, 4574.891
531.322, 4492.547
531.804, 4374.992
532.286, 4229.227
532.768, 4060.266
533.250, 3912.523
533.733, 3822.148
534.215, 3739.180
534.697, 3632.070
535.179, 3464.672
535.661, 3343.812
536.143, 3288.461
536.625, 3274.586
537.107, 3265.492
537.589, 3264.914
538.072, 3257.641
538.554, 3240.336
539.036, 3211.195
539.518, 3139.797
540.000, 3022.070
540.482, 2946.906
540.964, 3000.531
541.446, 3139.703
541.929, 3244.242
542.411, 3289.203
542.893, 3348.562
543.375, 3454.195
543.857, 3630.859
544.339, 3924.359
544.821, 4589.133
545.303, 5161.695
545.786, 5281.969
546.268, 5040.102
546.750, 4861.805
547.232, 4932.398
547.714, 5075.211
548.196, 5207.383
548.678, 5319.523
549.160, 5427.383
549.643, 5549.031
550.125, 5656.242
550.607, 5709.852
551.089, 5671.422
551.571, 5680.188
552.053, 5767.469
552.535, 5911.938
553.017, 6049.609
553.499, 6178.898
553.982, 6319.742
554.464, 6479.297
554.946, 6659.680
555.428, 6893.734
555.910, 7189.508
556.392, 7447.258
556.874, 7541.250
557.356, 7546.438
557.838, 7591.250
558.321, 7724.906
558.803, 7884.203
559.285, 8064.055
559.767, 8239.961
560.249, 8353.336
560.731, 8336.984
561.213, 8298.289
561.695, 8293.234
562.177, 8330.984
562.660, 8303.781
563.142, 8172.039
563.624, 8001.156
564.106, 7825.188
564.588, 7640.711
565.070, 7468.688
565.552, 7331.438
566.034, 7179.125
566.516, 6895.344
566.999, 6465.062
567.481, 6095.734
567.963, 5855.953
568.445, 5719.828
568.927, 5635.930
569.409, 5600.406
569.891, 5559.875
570.373, 5471.172
570.856, 5358.008
571.338, 5269.695
571.820, 5224.094
572.302, 5119.219
572.784, 4832.812
573.266, 4473.406
573.748, 4163.438
574.230, 3975.219
574.713, 3807.820
575.195, 3632.797
575.677, 3458.312
576.159, 3316.180
576.641, 3244.672
577.123, 3159.430
577.605, 3017.570
578.087, 2811.352
578.570, 2666.336
579.052, 2598.477
579.534, 2554.844
580.016, 2491.852
580.498, 2411.375
580.980, 2325.891
581.462, 2228.578
581.944, 2150.609
582.426, 2154.453
582.909, 2216.602
583.391, 2262.352
583.873, 2243.836
584.355, 2200.703
584.837, 2161.766
585.319, 2127.344
585.801, 2100.930
586.283, 2075.203
586.765, 2059.336
587.248, 2064.219
587.730, 2108.977
588.212, 2115.141
588.694, 2027.023
589.176, 1929.578
589.658, 1909.820
590.140, 2042.562
590.622, 2084.719
591.104, 1971.656
591.587, 1771.125
592.069, 1670.398
592.551, 1677.250
593.033, 1706.070
593.515, 1725.344
593.997, 1736.289
594.479, 1747.812
594.961, 1759.891
595.443, 1746.992
595.926, 1668.914
596.408, 1561.930
596.890, 1472.906
597.372, 1407.523
597.854, 1368.891
598.336, 1376.875
598.818, 1408.078
599.300, 1428.922
599.783, 1435.977
600.265, 1426.969
600.747, 1385.875
601.229, 1323.914
601.711, 1289.672
602.193, 1303.477
602.675, 1310.102
603.157, 1277.742
603.640, 1204.453
604.122, 1189.469
604.604, 1248.094
605.086, 1304.391
605.568, 1268.734
606.050, 1164.719
606.532, 1107.141
607.014, 1122.039
607.497, 1160.820
607.979, 1177.969
608.461, 1177.727
608.943, 1169.859
609.425, 1174.742
609.907, 1157.930
610.389, 1072.781
610.871, 938.945
611.353, 851.406
611.836, 907.148
612.318, 952.508
612.800, 906.648
613.282, 746.188
613.764, 642.000
614.246, 635.953
614.728, 636.320
615.210, 546.312
615.692, 347.242
616.175, 224.414
616.657, 204.570
617.139, 252.383
617.621, 344.727
618.103, 466.211
618.585, 535.273
619.067, 487.688
619.549, 399.109
620.031, 349.031
620.514, 333.156
620.996, 336.906
621.478, 361.688
621.960, 393.586
622.442, 427.320
622.924, 463.055
623.406, 483.500
623.888, 478.570
624.370, 460.195
624.853, 434.953
625.335, 393.891
625.817, 368.375
626.299, 371.953
626.781, 378.414
627.263, 332.352
627.745, 230.469
628.227, 163.883
628.710, 176.219
629.192, 226.008
629.674, 236.102
630.156, 208.742
630.638, 153.023
631.120, 38.227
631.602, 78.453
632.084, 125.141
632.567, 96.086
633.049, 88.367
633.531, 178.711
634.013, 284.898
634.495, 347.000
634.977, 349.430
635.459, 319.156
635.941, 231.273
636.424, 130.289
636.906, 75.617
637.388, 81.953
637.870, 90.711
638.352, 92.281
638.834, 91.328
639.316, 100.945
639.798, 120.383
640.280, 130.438
640.763, 110.219
641.245, 77.734
641.727, 56.188
642.209, 45.570
642.691, 55.719
643.173, 124.453
643.655, 192.719
644.137, 209.398
644.619, 155.555
645.102, 86.250
645.584, 1.945
646.066, 86.555
646.548, 171.148
647.030, 247.773
647.512, 320.914
647.994, 381.602
648.476, 440.125
648.958, 527.906
649.441, 644.516
649.923, 737.758
650.405, 768.742
650.887, 772.438
651.369, 848.125
651.851, 979.891
652.333, 1068.766
652.815, 982.242
653.297, 870.625
653.780, 915.047
654.262, 1136.039
654.744, 1293.672
655.226, 1239.828
655.708, 1122.227
656.190, 1042.852
656.672, 1001.141
657.154, 1025.008
657.636, 1161.992
658.119, 1323.461
658.601, 1389.680
659.083, 1339.938
659.565, 1314.617
660.047, 1351.805
660.529, 1409.258
661.011, 1390.828
661.494, 1308.812
661.976, 1237.430
662.458, 1191.492
662.940, 1191.195
663.422, 1281.797
663.904, 1451.383
664.386, 1621.180
664.868, 1776.359
665.350, 1903.984
665.833, 1996.555
666.315, 2050.406
666.797, 2077.719
667.279, 2032.734
667.761, 2000.961
668.243, 2043.258
668.725, 2167.500
669.207, 2316.844
669.690, 2490.727
670.172, 2665.344
670.654, 2822.469
671.136, 2955.133
671.618, 3024.398
672.100, 3012.867
672.582, 2948.648
673.064, 2845.828
673.546, 2720.969
674.029, 2610.445
674.511, 2559.695
674.993, 2509.633
675.475, 2430.477
675.957, 2327.984
676.439, 2236.109
676.921, 2161.344
677.403, 2105.180
677.885, 2085.086
678.368, 2112.414
678.850, 2033.320
679.332, 1806.211
679.814, 1586.836
680.296, 1540.102
680.778, 1629.234
681.260, 1640.016
681.742, 1535.891
682.224, 1410.984
682.707, 1371.828
683.189, 1374.727
683.671, 1347.141
684.153, 1231.727
684.635, 1134.203
685.117, 1120.172
685.599, 1155.922
686.081, 1177.445
686.563, 1198.164
687.046, 1179.656
687.528, 1100.844
688.010, 980.195
688.492, 867.750
688.974, 793.664
689.456, 901.852
689.938, 962.617
690.420, 982.070
690.903, 831.398
691.385, 896.148
691.867, 866.828
692.349, 830.430
692.831, 868.102
693.313, 842.141
693.795, 899.328
694.277, 938.234
694.760, 885.289
695.242, 801.477
695.724, 741.266
696.206, 745.312
696.688, 716.195
697.170, 621.117
697.652, 523.789
698.134, 541.883
698.617, 706.812
699.099, 754.938
699.581, 600.344
700.063, 365.539
700.545, 280.234
701.027, 307.883
701.509, 321.727
701.991, 226.977
702.473, 132.406
702.956, 145.719
703.438, 240.234
703.920, 309.508
704.402, 309.906
704.884, 277.453
705.366, 210.016
705.848, 106.562
706.330, 50.195
706.812, 53.883
707.295, 75.102
707.777, 89.672
708.259, 98.008
708.741, 127.242
709.223, 182.727
709.705, 224.344
710.187, 190.680
710.669, 122.445
711.151, 104.648
711.634, 170.219
712.116, 219.148
712.598, 159.234
713.080, 60.078
713.562, 2.438
714.044, 13.062
714.526, 54.602
715.008, 133.258
715.490, 233.312
715.973, 325.484
716.455, 408.203
716.937, 491.383
717.419, 583.328
717.901, 668.305
718.383, 712.195
718.865, 719.969
719.347, 702.305
719.830, 640.398
720.312, 573.422
720.794, 552.562
721.276, 572.180
721.758, 588.281
722.240, 580.273
722.722, 564.055
723.204, 551.445
723.687, 547.789
724.169, 515.734
724.651, 427.945
725.133, 354.234
725.615, 334.680
726.097, 369.844
726.579, 467.109
727.061, 645.008
727.544, 768.812
728.026, 634.367
728.508, 367.844
728.990, 237.898
729.472, 319.125
729.954, 428.992
730.436, 459.352
730.918, 449.906
731.400, 443.977
731.883, 452.938
732.365, 455.234
732.847, 453.508
733.329, 450.148
733.811, 445.172
734.293, 434.477
734.775, 437.219
735.257, 468.266
735.739, 497.055
736.222, 433.414
736.704, 301.875
737.186, 219.883
737.668, 288.727
738.150, 393.055
738.632, 440.656
739.114, 439.969
739.596, 414.086
740.078, 324.273
740.561, 259.141
741.043, 270.180
741.525, 352.570
742.007, 416.289
742.489, 451.500
742.971, 499.984
743.453, 589.305
743.935, 707.750
744.417, 789.000
744.900, 830.727
745.382, 860.594
745.864, 879.430
746.346, 899.211
746.828, 950.344
747.310, 1039.266
747.792, 1103.578
748.274, 1104.695
748.757, 1076.969
749.239, 1053.844
749.721, 1083.078
750.203, 1029.633
750.685, 835.938
751.167, 624.867
751.649, 552.180
752.131, 625.945
752.614, 653.938
753.096, 609.070
753.578, 533.172
754.060, 437.078
754.542, 354.758
755.024, 360.227
755.506, 534.172
755.988, 685.883
756.471, 667.125
756.953, 558.906
757.435, 498.664
757.917, 573.047
758.399, 599.570
758.881, 544.469
759.363, 449.930
759.845, 394.266
760.327, 367.367
760.810, 329.062
761.292, 277.781
761.774, 211.945
762.256, 106.664
762.738, 16.930
763.220, 91.625
763.702, 52.492
764.184, 23.695
764.666, 101.383
765.148, 174.359
765.631, 221.828
766.113, 199.844
766.595, 200.469
767.077, 251.148
767.559, 342.250
768.041, 404.133
768.523, 428.336
769.005, 460.719
769.487, 553.242
769.970, 665.766
770.452, 689.516
770.934, 630.484
771.416, 585.453
771.898, 651.680
772.380, 718.406
772.862, 689.656
773.344, 545.094
773.827, 397.383
774.309, 211.461
774.791, 82.227
775.273, 94.578
775.755, 291.641
776.237, 341.391
776.719, 216.883
777.201, 74.008
777.683, 89.680
778.166, 196.047
778.648, 204.328
779.130, 76.648
779.612, 37.039
780.094, 20.758
780.576, 58.547
781.058, 136.961
781.541, 210.164
782.023, 262.781
782.505, 295.617
782.987, 304.914
783.469, 280.883
783.951, 216.312
784.433, 157.992
784.915, 107.469
785.397, 77.078
785.880, 113.195
786.362, 183.523
786.844, 196.539
787.326, 106.812
787.808, 12.125
788.290, 40.211
788.772, 50.016
789.254, 18.195
789.737, 117.562
790.219, 210.234
790.701, 224.281
791.183, 202.703
791.665, 220.922
792.147, 282.008
792.629, 337.047
793.111, 373.734
793.593, 395.750
794.076, 405.414
794.558, 403.922
795.040, 395.008
795.522, 390.836
796.004, 369.656
796.486, 282.891
796.968, 174.781
797.450, 161.703
797.932, 387.562
798.415, 497.398
798.897, 384.984
799.379, 139.023
799.861, 2.414
800.343, 36.797
800.825, 30.438
801.307, 11.789
801.789, 58.406
802.271, 52.688
802.754, 10.859
803.236, 14.961
803.718, 6.320
804.200, 39.289
804.682, 83.141
805.164, 128.922
805.646, 139.648
806.128, 106.633
806.610, 51.742
807.093, 39.039
807.575, 138.461
808.057, 118.531
808.539, 10.344
809.021, 117.953
809.503, 113.453
809.985, 65.094
810.468, 46.492
810.950, 50.719
811.432, 41.219
811.914, 9.250
812.396, 64.086
812.878, 119.867
813.360, 172.523
813.842, 183.141
814.324, 143.156
814.807, 86.977
815.289, 7.297
815.771, 69.977
816.253, 19.312
816.735, 137.086
817.217, 230.664
817.699, 63.703
818.181, 133.328
818.664, 168.312
819.146, 45.992
819.628, 62.922
820.110, 119.180
820.592, 162.594
821.074, 206.125
821.556, 240.664
822.038, 237.727
822.520, 195.297
823.003, 154.258
823.485, 155.297
823.967, 169.602
824.449, 127.398
824.931, 37.383
825.413, 37.789
825.895, 36.797
826.377, 27.219
826.859, 62.484
827.342, 144.508
827.824, 139.797
828.306, 43.992
828.788, 145.320
829.270, 18.344
829.752, 381.508
830.234, 478.688
830.716, 318.117
831.198, 154.422
831.681, 189.719
832.163, 291.344
832.645, 328.477
833.127, 301.711
833.609, 256.109
834.091, 161.758
834.573, 91.516
835.055, 76.750
835.537, 120.156
836.020, 173.070
836.502, 236.430
836.984, 287.883
837.466, 308.602
837.948, 313.695
838.430, 330.000
838.912, 354.078
839.394, 374.500
839.877, 380.266
840.359, 384.500
840.841, 398.797
841.323, 423.531
841.805, 436.547
842.287, 419.688
842.769, 417.828
843.251, 453.758
843.734, 521.984
844.216, 580.438
844.698, 627.203
845.180, 667.789
845.662, 706.883
846.144, 736.492
846.626, 740.484
847.108, 726.273
847.591, 731.891
848.073, 793.555
848.555, 842.297
849.037, 838.430
849.519, 792.977
850.001, 803.773
850.483, 889.555
850.965, 952.953
851.447, 926.305
851.930, 858.961
852.412, 884.391
852.894, 984.789
853.376, 1063.750
853.858, 1064.117
854.340, 1032.719
854.822, 964.234
855.304, 877.086
855.786, 878.141
856.269, 1014.641
856.751, 1157.430
857.233, 1262.508
857.715, 1338.508
858.197, 1419.125
858.679, 1505.609
859.161, 1619.688
859.643, 1779.047
860.125, 1954.578
860.608, 2128.797
861.090, 2291.359
861.572, 2421.828
862.054, 2475.930
862.536, 2535.469
863.018, 2626.031
863.500, 2733.586
863.982, 2806.344
864.464, 2837.633
864.947, 2897.016
865.429, 3020.664
865.911, 3173.891
866.393, 3301.406
866.875, 3406.695
867.357, 3511.773
867.839, 3639.477
868.321, 3760.922
868.804, 3845.797
869.286, 3926.492
869.768, 4065.242
870.250, 4283.109
870.732, 4499.359
871.214, 4687.664
871.696, 4891.211
872.178, 5196.047
872.661, 5585.727
873.143, 6013.719
873.625, 6473.664
874.107, 6932.523
874.589, 7355.469
875.071, 7760.594
875.553, 8189.508
876.035, 8534.867
876.518, 9050.117
877.000, 9808.531
877.482, 10648.945
877.964, 11358.766
878.446, 11947.148
878.928, 12623.062
879.410, 13421.023
879.892, 14277.914
880.374, 15155.305
880.857, 16043.078
881.339, 16912.594
881.821, 17706.836
882.303, 18621.359
882.785, 19724.453
883.267, 20947.195
883.749, 22252.102
884.231, 23665.930
884.713, 25004.789
885.196, 26251.453
885.678, 27534.578
886.160, 29043.148
886.642, 30645.570
887.124, 32090.992
887.606, 33340.750
888.088, 34670.047
888.570, 36354.898
889.052, 38044.000
889.534, 39518.617
890.017, 40744.195
890.499, 41967.969
890.981, 43202.594
891.463, 44407.484
891.945, 45581.148
892.427, 46697.031
892.909, 47710.766
893.391, 48600.789
893.874, 49297.484
894.356, 49722.844
894.838, 49960.281
895.320, 50132.203
895.802, 50205.828
896.284, 49791.656
896.766, 48718.922
897.248, 47578.547
897.731, 46661.859
898.213, 45813.711
898.695, 44460.438
899.177, 42701.422
899.659, 40903.859
900.141, 39299.289
900.623, 37718.703
901.105, 36037.266
901.588, 34314.602
902.070, 32696.531
902.552, 31276.023
903.034, 29859.594
903.516, 28411.266
903.998, 26967.516
904.480, 25574.703
904.962, 24236.883
905.444, 22954.148
905.927, 21708.875
906.409, 20549.680
906.891, 19555.234
907.373, 18657.984
907.855, 17777.188
908.337, 16860.367
908.819, 16012.828
909.301, 15271.438
909.783, 14562.742
910.266, 13797.805
910.748, 12979.180
911.230, 12236.930
911.712, 11586.234
912.194, 11015.000
912.676, 10541.602
913.158, 10118.594
913.640, 9691.664
914.122, 9240.297
914.605, 8817.133
915.087, 8433.289
915.569, 8077.109
916.051, 7735.859
916.533, 7413.547
917.015, 7137.828
917.497, 6911.891
917.979, 6680.430
918.461, 6390.469
918.944, 6081.109
919.426, 5779.938
919.908, 5493.148
920.390, 5261.938
920.872, 5141.508
921.354, 5026.453
921.836, 4861.180
922.318, 4668.672
922.801, 4600.391
923.283, 4653.469
923.765, 4683.742
924.247, 4610.375
924.729, 4493.586
925.211, 4380.172
925.693, 4279.641
926.175, 4216.273
926.657, 4215.383
927.140, 4238.047
927.622, 4316.164
928.104, 4393.398
928.586, 4349.305
929.068, 4179.102
929.550, 4051.336
930.032, 4009.703
930.515, 3994.508
930.997, 3922.961
931.479, 3836.602
931.961, 3796.797
932.443, 3822.859
932.925, 3869.875
933.407, 3948.469
933.889, 4039.594
934.371, 4125.336
934.854, 4201.758
935.336, 4294.023
935.818, 4404.289
936.300, 4514.117
936.782, 4614.359
937.264, 4696.219
937.746, 4735.836
938.228, 4732.602
938.710, 4754.875
939.193, 4887.648
939.675, 4983.312
940.157, 4978.250
940.639, 4885.750
941.121, 4802.000
941.603, 4728.398
942.085, 4611.453
942.567, 4420.844
943.049, 4175.984
943.532, 3897.867
944.014, 3585.594
944.496, 3243.922
944.978, 2755.680
945.460, 2400.281
945.942, 2276.820
946.424, 2268.414
946.906, 2175.922
947.388, 1999.492
947.871, 1799.797
948.353, 1578.047
948.835, 1376.930
949.317, 1264.773
949.799, 1190.859
950.281, 1086.008
950.763, 911.820
951.245, 770.367
951.728, 673.469
952.210, 606.500
952.692, 557.281
953.174, 524.609
953.656, 545.016
954.138, 618.914
954.620, 644.023
955.102, 475.406
955.584, 270.773
956.067, 180.531
956.549, 205.531
957.031, 244.180
957.513, 323.039
957.995, 349.039
958.477, 274.172
958.959, 140.336
959.442, 70.523
959.924, 61.141
960.406, 87.484
960.888, 164.758
961.370, 235.367
961.852, 235.898
962.334, 199.852
962.816, 183.344
963.298, 206.945
963.781, 220.094
964.263, 204.070
964.745, 204.406
965.227, 342.898
965.709, 558.781
966.191, 538.375
966.673, 227.141
967.155, 75.547
967.638, 168.703
968.120, 163.039
968.602, 130.656
969.084, 74.586
969.566, 17.836
970.048, 46.523
970.530, 86.812
971.012, 79.922
971.494, 37.938
971.977, 33.047
972.459, 117.531
972.941, 149.867
973.423, 49.562
973.905, 61.133
974.387, 139.945
974.869, 186.750
975.351, 188.750
975.833, 115.961
976.316, 142.773
976.798, 328.070
977.280, 540.078
977.762, 618.055
978.244, 586.258
978.726, 466.031
979.208, 222.805
979.690, 26.375
980.172, 69.891
980.655, 93.695
981.137, 44.586
981.619, 84.180
982.101, 168.336
982.583, 208.875
983.065, 210.188
983.547, 165.680
984.029, 93.570
984.511, 1.219
984.994, 108.375
985.476, 181.750
985.958, 174.875
986.440, 169.844
986.922, 183.133
987.404, 207.680
987.886, 232.391
988.369, 256.344
988.851, 274.805
989.333, 299.273
989.815, 281.297
990.297, 107.445
990.779, 92.312
991.261, 155.781
991.743, 51.727
992.225, 132.516
992.708, 50.734
993.190, 79.258
993.672, 189.625
994.154, 273.445
994.636, 282.492
995.118, 223.656
995.600, 194.586
996.082, 296.266
996.565, 401.008
997.047, 416.922
997.529, 371.688
998.011, 386.625
998.493, 474.805
998.975, 548.555
999.457, 583.562
999.939, 587.117
1000.421, 525.938
1000.904, 453.891
1001.386, 482.719
1001.868, 714.523
1002.350, 905.562
1002.832, 984.906
1003.314, 1013.141
1003.796, 1031.695
1004.278, 1040.406
1004.760, 1027.695
1005.243, 993.344
1005.725, 980.227
1006.207, 1053.562
1006.689, 1141.695
1007.171, 1168.617
1007.653, 1141.984
1008.135, 1133.391
1008.617, 1141.781
1009.099, 1181.430
1009.582, 1265.086
1010.064, 1372.586
1010.546, 1496.102
1011.028, 1615.633
1011.510, 1620.609
1011.992, 1386.023
1012.474, 1221.531
1012.956, 1408.234
1013.438, 1692.727
1013.921, 1803.188
1014.403, 1679.352
1014.885, 1603.297
1015.367, 1580.406
1015.849, 1578.328
1016.331, 1592.484
1016.813, 1602.008
1017.295, 1567.211
1017.778, 1493.766
1018.260, 1421.500
1018.742, 1352.734
1019.224, 1308.867
1019.706, 1313.602
1020.188, 1337.250
1020.670, 1279.453
1021.152, 1152.375
1021.634, 1081.805
1022.117, 1090.344
1022.599, 1197.305
1023.081, 1570.984
1023.563, 1972.984
1024.045, 2108.562
1024.527, 1805.391
1025.009, 1608.906
1025.491, 1540.867
1025.974, 1530.219
1026.456, 1559.234
1026.938, 1601.211
1027.420, 1527.180
1027.902, 1362.758
1028.384, 1254.273
1028.866, 1360.781
1029.348, 1447.086
1029.830, 1393.445
1030.313, 1269.148
1030.795, 1218.938
1031.277, 1257.133
1031.759, 1299.648
1032.241, 1338.430
1032.723, 1348.266
1033.205, 1273.320
1033.687, 1168.477
1034.170, 1099.781
1034.652, 1088.938
1035.134, 1052.055
1035.616, 926.625
1036.098, 871.586
1036.580, 1014.672
1037.062, 1284.102
1037.544, 1413.711
1038.026, 1413.508
1038.509, 1372.055
1038.991, 1295.328
1039.473, 1232.422
1039.955, 1246.711
1040.437, 1267.484
1040.919, 1151.656
1041.401, 857.125
1041.883, 708.875
1042.365, 759.359
1042.848, 858.453
1043.330, 896.820
1043.812, 880.039
1044.294, 786.469
1044.776, 611.180
1045.258, 482.672
1045.740, 459.125
1046.222, 424.789
1046.705, 315.320
1047.187, 176.836
1047.669, 190.695
1048.151, 330.406
1048.633, 441.219
1049.115, 426.859
1049.597, 398.336
1050.079, 435.578
1050.562, 498.773
1051.044, 517.945
1051.526, 452.805
1052.008, 511.797
1052.490, 716.406
1052.972, 916.727
1053.454, 982.070
1053.936, 969.867
1054.418, 926.516
1054.901, 861.727
1055.383, 829.227
1055.865, 852.531
1056.347, 891.664
1056.829, 957.266
1057.311, 1007.266
1057.793, 923.266
1058.275, 746.820
1058.757, 650.359
1059.240, 694.250
1059.722, 747.039
1060.204, 735.797
1060.686, 706.633
1061.168, 712.109
1061.650, 762.438
1062.132, 708.078
1062.614, 541.070
1063.097, 380.586
1063.579, 310.359
1064.061, 274.586
1064.543, 190.633
1065.025, 91.531
1065.507, 56.117
1065.989, 174.172
1066.471, 249.516
1066.953, 272.984
1067.436, 244.445
1067.918, 122.922
1068.400, 49.109
1068.882, 129.234
1069.364, 104.336
1069.846, 62.875
1070.328, 88.328
1070.810, 72.406
1071.292, 58.695
1071.775, 266.539
1072.257, 392.562
1072.739, 435.258
1073.221, 464.031
1073.703, 506.094
1074.185, 523.734
1074.667, 455.672
1075.149, 356.594
1075.631, 295.195
1076.114, 298.883
1076.596, 306.250
1077.078, 334.891
1077.560, 331.734
1078.042, 241.047
1078.524, 107.141
1079.006, 28.797
1079.488, 6.203
1079.971, 50.359
1080.453, 183.305
1080.935, 241.828
1081.417, 145.039
1081.899, 6.398
1082.381, 20.625
1082.863, 160.211
1083.345, 137.930
1083.828, 85.461
1084.310, 278.211
1084.792, 176.055
1085.274, 54.180
1085.756, 146.992
1086.238, 421.117
1086.720, 586.859
1087.202, 636.539
1087.684, 620.602
1088.167, 532.773
1088.649, 433.766
1089.131, 392.039
1089.613, 401.633
1090.095, 461.523
1090.577, 626.945
1091.059, 695.008
1091.541, 612.883
1092.023, 530.133
1092.506, 559.312
1092.988, 664.148
1093.470, 715.000
1093.952, 730.172
1094.434, 792.648
1094.916, 1052.125
1095.398, 1221.320
1095.880, 1132.219
1096.363, 957.047
1096.845, 919.406
1097.327, 1013.250
1097.809, 1115.016
1098.291, 1216.453
1098.773, 1255.922
1099.255, 1106.250
1099.737, 946.062
1100.219, 947.188
1100.702, 1086.172
1101.184, 1120.438
1101.666, 1030.844
1102.148, 934.531
1102.630, 854.203
1103.112, 803.531
1103.594, 798.812
1104.076, 834.188
1104.558, 914.375
1105.041, 1072.703
1105.523, 1131.047
1106.005, 1025.812
1106.487, 927.984
1106.969, 957.672
1107.451, 1050.219
1107.933, 996.500
1108.415, 840.328
1108.898, 717.406
1109.380, 707.188
1109.862, 697.219
1110.344, 670.109
1110.826, 628.016
1111.308, 562.719
1111.790, 479.406
1112.272, 439.125
1112.755, 444.141
1113.237, 443.219
1113.719, 368.891
1114.201, 302.984
1114.683, 303.500
1115.165, 350.781
1115.647, 381.906
1116.129, 388.531
1116.611, 439.875
1117.094, 560.000
1117.576, 664.922
1118.058, 665.594
1118.540, 601.922
1119.022, 495.875
1119.504, 345.016
1119.986, 281.125
1120.468, 342.812
1120.950, 397.016
1121.433, 400.484
1121.915, 366.578
1122.397, 273.531
1122.879, 168.891
1123.361, 156.453
1123.843, 340.266
1124.325, 446.531
1124.807, 370.953
1125.290, 314.875
1125.772, 444.891
1126.254, 698.047
1126.736, 818.484
1127.218, 836.047
1127.700, 871.438
1128.182, 1026.594
1128.664, 1140.375
1129.146, 1107.250
1129.629, 1034.562
1130.111, 1048.531
1130.593, 1142.969
1131.075, 1242.109
1131.557, 1337.656
1132.039, 1398.594
1132.521, 1384.891
1133.003, 1346.859
1133.485, 1312.141
1133.968, 1286.656
1134.450, 1288.641
1134.932, 1332.453
1135.414, 1324.422
1135.896, 1240.844
1136.378, 1151.266
1136.860, 1167.812
1137.342, 1193.281
1137.825, 1084.094
1138.307, 801.250
1138.789, 738.188
1139.271, 983.547
1139.753, 1167.906
1140.235, 1116.875
1140.717, 945.703
1141.199, 806.391
1141.682, 721.641
1142.164, 715.797
1142.646, 855.391
1143.128, 904.438
1143.610, 838.656
1144.092, 702.094
1144.574, 460.625
1145.056, 204.766
1145.538, 234.109
1146.021, 456.594
1146.503, 563.234
1146.985, 295.000
1147.467, 100.047
1147.949, 67.609
1148.431, 127.828
1148.913, 242.031
1149.395, 390.047
1149.877, 453.141
1150.360, 436.172
1150.842, 455.703
1151.324, 621.328
1151.806, 772.594
1152.288, 836.906
1152.770, 840.438
1153.252, 812.375
1153.734, 753.703
1154.217, 724.422
1154.699, 733.203
1155.181, 750.062
1155.663, 752.938
1156.145, 762.219
1156.627, 806.969
1157.109, 874.422
1157.591, 916.500
1158.073, 936.562
1158.556, 904.750
1159.038, 792.062
1159.520, 713.344
1160.002, 851.875
1160.484, 1022.531
1160.966, 1017.500
1161.448, 817.391
1161.930, 697.203
1162.412, 669.281
1162.895, 613.922
1163.377, 454.891
1163.859, 297.844
1164.341, 331.734
1164.823, 422.328
1165.305, 356.984
1165.787, 7.484
1166.269, 141.766
1166.752, 6.500
1167.234, 177.156
1167.716, 194.250
1168.198, 147.312
1168.680, 190.250
1169.162, 274.531
1169.644, 284.688
1170.126, 69.797
1170.609, 14.156
1171.091, 61.688
1171.573, 194.516
1172.055, 307.234
1172.537, 402.078
1173.019, 468.594
1173.501, 516.391
1173.983, 608.172
1174.465, 880.656
1174.948, 1011.359
1175.430, 909.781
1175.912, 753.422
1176.394, 795.125
1176.876, 948.672
1177.358, 1027.078
1177.840, 1014.953
1178.322, 940.172
1178.804, 712.844
1179.287, 562.438
1179.769, 562.031
1180.251, 645.609
1180.733, 701.016
1181.215, 738.578
1181.697, 790.562
1182.179, 861.859
1182.661, 925.906
1183.144, 952.547
1183.626, 987.000
1184.108, 1058.156
1184.590, 1137.344
1185.072, 1154.906
1185.554, 1111.219
1186.036, 1000.859
1186.518, 803.562
1187.000, 619.266
1187.483, 489.906
1187.965, 400.797
1188.447, 361.547
1188.929, 354.953
1189.411, 261.609
1189.893, 107.719
1190.375, 23.453
1190.857, 105.500
1191.339, 178.297
1191.822, 126.297
1192.304, 53.562
1192.786, 37.125
1193.268, 72.859
1193.750, 104.266
1194.232, 130.703
1194.714, 154.406
1195.196, 147.438
1195.678, 169.625
1196.161, 314.922
1196.643, 453.609
1197.125, 395.734
1197.607, 132.297
1198.089, 296.781
1198.571, 864.016
1199.053, 1205.250
1199.535, 723.281
1200.018, 163.016
1200.500, 110.203
1200.982, 184.203
1201.464, 155.578
1201.946, 20.953
1202.428, 21.234
1202.910, 41.422
1203.392, 98.141
1203.875, 81.891
1204.357, 25.625
1204.839, 74.750
1205.321, 187.016
1205.803, 249.000
1206.285, 268.812
1206.767, 312.906
1207.249, 373.516
1207.731, 425.609
1208.214, 447.578
1208.696, 454.969
1209.178, 452.766
1209.660, 453.578
1210.142, 486.281
1210.624, 551.500
1211.106, 605.734
1211.588, 639.953
1212.070, 685.609
1212.553, 799.406
1213.035, 905.531
1213.517, 943.766
1213.999, 925.422
1214.481, 889.953
1214.963, 836.594
1215.445, 728.250
1215.927, 541.141
1216.410, 376.344
1216.892, 317.703
1217.374, 316.859
1217.856, 367.594
1218.338, 449.344
1218.820, 401.953
1219.302, 233.094
1219.784, 145.641
1220.266, 230.375
1220.749, 327.031
1221.231, 309.203
1221.713, 257.188
1222.195, 234.594
1222.677, 239.672
1223.159, 244.297
1223.641, 246.562
1224.123, 267.188
1224.605, 338.031
1225.088, 393.062
1225.570, 346.250
1226.052, 296.531
1226.534, 351.656
1227.016, 505.625
1227.498, 498.844
1227.980, 348.781
1228.462, 289.953
1228.945, 502.578
1229.427, 716.844
1229.909, 760.625
1230.391, 739.875
1230.873, 768.859
1231.355, 846.266
1231.837, 804.953
1232.319, 661.688
1232.802, 560.484
1233.284, 621.953
1233.766, 702.781
1234.248, 719.641
1234.730, 740.328
1235.212, 848.891
1235.694, 1034.750
1236.176, 1125.969
1236.658, 1126.281
1237.141, 1091.281
1237.623, 999.938
1238.105, 936.125
1238.587, 946.203
1239.069, 991.141
1239.551, 1072.703
1240.033, 1175.062
1240.515, 1120.578
1240.997, 932.688
1241.480, 769.938
1241.962, 697.812
1242.444, 709.000
1242.926, 864.969
1243.408, 1031.312
1243.890, 1025.297
1244.372, 890.562
1244.854, 866.984
1245.337, 945.328
1245.819, 1016.875
1246.301, 1071.156
1246.783, 1116.641
1247.265, 1118.328
1247.747, 1131.000
1248.229, 1239.953
1248.711, 1387.562
1249.193, 1389.031
1249.676, 1248.172
1250.158, 1084.078
1250.640, 898.266
1251.122, 782.969
1251.604, 773.109
1252.086, 818.375
1252.568, 893.719
1253.050, 963.812
1253.532, 910.656
1254.015, 749.281
1254.497, 641.000
1254.979, 651.047
1255.461, 671.250
1255.943, 681.422
1256.425, 704.422
1256.907, 807.219
1257.389, 925.453
1257.872, 922.078
1258.354, 801.766
1258.836, 792.844
1259.318, 1013.531
1259.800, 1091.156
1260.282, 948.094
1260.764, 709.719
1261.246, 462.266
1261.729, 263.656
1262.211, 267.156
1262.693, 447.969
1263.175, 393.172
1263.657, 6.141
1264.139, 255.859
1264.621, 290.812
1265.103, 213.609
1265.585, 79.094
1266.068, 59.281
1266.550, 123.547
1267.032, 133.703
1267.514, 228.312
1267.996, 415.062
1268.478, 597.281
1268.960, 753.703
1269.442, 884.031
1269.924, 908.844
1270.407, 967.656
1270.889, 1230.297
1271.371, 1616.234
1271.853, 1835.922
1272.335, 1886.719
1272.817, 1917.641
1273.299, 1960.031
1273.781, 2015.891
1274.264, 2172.734
1274.746, 2250.172
1275.228, 2116.656
1275.710, 1862.266
1276.192, 1728.875
1276.674, 1719.156
1277.156, 1719.719
1277.638, 1562.484
1278.120, 1381.938
1278.603, 1088.219
1279.085, 828.578
1279.567, 728.062
1280.049, 715.406
1280.531, 674.750
1281.013, 613.156
1281.495, 553.156
1281.977, 493.938
1282.459, 468.000
1282.942, 482.250
1283.424, 532.797
1283.906, 656.078
1284.388, 770.547
1284.870, 615.156
1285.352, 327.422
1285.834, 180.141
1286.316, 225.812
1286.799, 230.094
1287.281, 165.750
1287.763, 110.047
1288.245, 85.047
1288.727, 70.172
1289.209, 31.406
1289.691, 3.094
1290.173, 0.000
##END=



