##NAMES=Hydrotalcite
##RRUFFID=R060527
##IDEAL CHEMISTRY=Mg_6_Al_2_CO_3_(OH)_16_&#183;4H_2_O
##LOCALITY=Jacupiranga Pegmatite, Sao Paulo State, Brazil
##OWNER=RRUFF
##SOURCE=Michael Scott
##DESCRIPTION=Orange hexagonal prisms topped with steep pyramids
##STATUS=The identification of this mineral has been confirmed only by single crystal X-ray diffraction.
##URL=rruff.info/R060527
88.256, 0.000
88.738, 19.332
89.220, 37.831
89.702, 53.118
90.184, 54.079
90.666, 49.136
91.148, 51.633
91.631, 67.450
92.113, 90.953
92.595, 112.454
93.077, 121.062
93.559, 130.945
94.041, 153.676
94.523, 179.626
95.005, 192.099
95.487, 197.183
95.970, 212.114
96.452, 241.481
96.934, 232.687
97.416, 213.835
97.898, 182.610
98.380, 140.198
98.862, 100.322
99.344, 68.298
99.826, 44.358
100.309, 25.962
100.791, 14.747
101.273, 7.617
101.755, 2.195
102.237, 15.182
102.719, 29.883
103.201, 47.753
103.683, 74.551
104.165, 89.741
104.648, 88.746
105.130, 53.493
105.612, 26.115
106.094, 6.188
106.576, 17.050
107.058, 12.551
107.540, 26.354
108.022, 39.777
108.505, 67.030
108.987, 68.575
109.469, 77.833
109.951, 85.851
110.433, 103.676
110.915, 145.297
111.397, 232.611
111.879, 324.898
112.362, 411.737
112.844, 488.360
113.326, 566.160
113.808, 646.240
114.290, 729.195
114.772, 814.060
115.254, 901.479
115.736, 990.482
116.218, 1079.808
116.701, 1157.309
117.183, 1249.185
117.665, 1371.236
118.147, 1518.693
118.629, 1668.653
119.111, 1827.023
119.593, 1975.903
120.075, 2094.787
120.558, 2142.954
121.040, 2183.738
121.522, 2262.760
122.004, 2381.865
122.486, 2507.108
122.968, 2625.690
123.450, 2733.147
123.932, 2821.294
124.414, 2879.470
124.897, 2918.709
125.379, 2947.112
125.861, 2960.691
126.343, 2980.643
126.825, 3029.869
127.307, 3105.348
127.789, 3194.453
128.271, 3296.348
128.753, 3405.682
129.236, 3505.836
129.718, 3587.802
130.200, 3668.620
130.682, 3783.799
131.164, 3932.089
131.646, 4085.268
132.128, 4198.550
132.610, 4282.271
133.093, 4426.980
133.575, 4669.329
134.057, 4984.843
134.539, 5294.702
135.021, 5596.972
135.503, 5901.924
135.985, 6209.164
136.467, 6518.798
136.949, 6859.005
137.432, 7240.555
137.914, 7664.690
138.396, 8107.051
138.878, 8566.310
139.360, 9038.203
139.842, 9509.906
140.324, 9969.426
140.806, 10456.340
141.288, 10987.003
141.771, 11572.832
142.253, 12175.044
142.735, 12786.932
143.217, 13416.656
143.699, 14062.017
144.181, 14715.812
144.663, 15405.516
145.145, 16164.761
145.628, 17021.318
146.110, 17880.609
146.592, 18731.303
147.074, 19580.834
147.556, 20427.309
148.038, 21284.855
148.520, 22138.863
149.002, 22969.637
149.484, 23816.578
149.967, 24610.783
150.449, 25336.373
150.931, 25995.469
151.413, 26623.158
151.895, 27286.689
152.377, 27893.943
152.859, 28349.072
153.342, 28584.480
153.824, 28739.471
154.306, 28847.066
154.788, 28919.957
155.270, 28906.021
155.752, 28808.176
156.234, 28620.467
156.716, 28333.527
157.198, 27902.717
157.680, 27411.363
158.163, 26889.869
158.645, 26338.867
159.127, 25762.746
159.609, 25161.551
160.091, 24533.043
160.573, 23871.604
161.055, 23177.938
161.538, 22451.066
162.020, 21692.424
162.502, 20871.521
162.984, 20070.355
163.466, 19357.203
163.948, 18697.443
164.430, 17977.463
164.912, 17096.395
165.394, 16164.983
165.876, 15275.014
166.359, 14440.551
166.841, 13667.110
167.323, 12969.560
167.805, 12343.470
168.287, 11752.840
168.769, 11119.706
169.251, 10534.811
169.733, 10097.754
170.216, 9991.042
170.698, 9949.078
171.180, 9766.365
171.662, 9443.107
172.144, 9065.812
172.626, 8626.601
173.108, 8181.092
173.590, 7815.694
174.072, 7601.469
174.555, 7470.466
175.037, 7354.741
175.519, 7253.267
176.001, 7154.278
176.483, 7051.008
176.965, 6942.232
177.447, 6827.641
177.929, 6705.300
178.412, 6577.362
178.894, 6447.656
179.376, 6317.875
179.858, 6185.446
180.340, 6047.030
180.822, 5903.687
181.304, 5757.742
181.786, 5618.170
182.268, 5476.735
182.751, 5309.612
183.233, 5106.984
183.715, 4897.184
184.197, 4734.259
184.679, 4612.373
185.161, 4487.678
185.643, 4325.827
186.125, 4136.521
186.607, 3939.963
187.090, 3733.843
187.572, 3532.667
188.054, 3360.265
188.536, 3218.147
189.018, 3096.574
189.500, 2994.942
189.982, 2912.273
190.464, 2833.689
190.947, 2759.985
191.429, 2687.525
191.911, 2602.802
192.393, 2503.818
192.875, 2412.278
193.357, 2349.391
193.839, 2314.770
194.321, 2283.259
194.803, 2249.694
195.286, 2215.144
195.768, 2181.654
196.250, 2149.126
196.732, 2120.047
197.214, 2096.730
197.696, 2078.925
198.178, 2062.984
198.661, 2044.783
199.143, 2026.331
199.625, 2027.551
200.107, 2054.202
200.589, 2084.395
201.071, 2087.121
201.553, 2058.151
202.035, 2037.236
202.517, 2039.614
202.999, 2064.976
203.482, 2078.300
203.964, 2078.344
204.446, 2069.483
204.928, 2055.425
205.410, 2031.009
205.892, 2014.497
206.374, 2017.246
206.857, 2041.175
207.339, 2047.609
207.821, 2027.146
208.303, 1997.186
208.785, 1992.535
209.267, 2028.456
209.749, 2045.604
210.231, 2014.296
210.713, 1925.069
211.195, 1842.271
211.678, 1765.246
212.160, 1695.276
212.642, 1632.834
213.124, 1580.202
213.606, 1528.159
214.088, 1473.900
214.570, 1418.815
215.052, 1360.603
215.535, 1296.868
216.017, 1230.001
216.499, 1168.397
216.981, 1112.533
217.463, 1062.010
217.945, 1014.615
218.427, 967.802
218.909, 928.954
219.391, 899.543
219.874, 878.568
220.356, 862.136
220.838, 821.690
221.320, 804.661
221.802, 782.150
222.284, 754.494
222.766, 705.712
223.248, 684.250
223.731, 650.755
224.213, 621.729
224.695, 600.564
225.177, 604.722
225.659, 606.646
226.141, 611.391
226.623, 601.577
227.105, 568.928
227.587, 519.563
228.070, 484.618
228.552, 472.191
229.034, 463.990
229.516, 448.048
229.998, 418.423
230.480, 394.431
230.962, 379.417
231.444, 371.679
231.926, 361.587
232.409, 349.575
232.891, 334.896
233.373, 315.680
233.855, 286.451
234.337, 264.481
234.819, 254.021
235.301, 253.268
235.783, 248.047
236.266, 237.885
236.748, 223.906
237.230, 205.617
237.712, 175.989
238.194, 156.002
238.676, 152.248
239.158, 162.474
239.640, 164.039
240.122, 151.286
240.605, 136.556
241.087, 122.443
241.569, 77.626
242.051, 63.496
242.533, 74.678
243.015, 79.728
243.497, 78.977
243.980, 55.012
244.462, 61.042
244.944, 55.062
245.426, 48.597
245.908, 58.867
246.390, 38.317
246.872, 46.692
247.354, 39.555
247.836, 9.887
248.318, 22.124
248.801, 39.060
249.283, 32.401
249.765, 28.787
250.247, 34.711
250.729, 48.996
251.211, 52.265
251.693, 36.099
252.176, 19.148
252.658, 17.398
253.140, 37.483
253.622, 58.337
254.104, 79.300
254.586, 99.532
255.068, 109.550
255.550, 105.411
256.032, 96.089
256.514, 89.283
256.997, 87.637
257.479, 81.740
257.961, 67.825
258.443, 46.911
258.925, 37.678
259.407, 55.616
259.889, 62.416
260.371, 70.944
260.854, 54.349
261.336, 43.900
261.818, 39.263
262.300, 57.753
262.782, 46.462
263.264, 47.160
263.746, 48.387
264.228, 33.016
264.711, 48.339
265.193, 33.309
265.675, 30.449
266.157, 22.074
266.639, 25.757
267.121, 25.762
267.603, 13.776
268.085, 8.483
268.567, 13.688
269.050, 5.168
269.532, 21.268
270.014, 15.832
270.496, 11.924
270.978, 2.466
271.460, 29.931
271.942, 33.849
272.424, 9.044
272.906, 10.802
273.389, 19.127
273.871, 19.171
274.353, 27.789
274.835, 48.649
275.317, 65.785
275.799, 65.085
276.281, 44.198
276.763, 25.237
277.246, 10.810
277.728, 0.732
278.210, 4.895
278.692, 5.231
279.174, 4.342
279.656, 2.905
280.138, 0.603
280.620, 7.345
281.103, 27.476
281.585, 54.803
282.067, 72.871
282.549, 81.057
283.031, 84.457
283.513, 83.324
283.995, 78.187
284.477, 81.339
284.959, 96.700
285.441, 117.905
285.924, 132.440
286.406, 140.299
286.888, 142.071
287.370, 133.452
287.852, 116.762
288.334, 108.560
288.816, 110.669
289.298, 121.923
289.781, 142.198
290.263, 171.267
290.745, 203.534
291.227, 239.502
291.709, 276.765
292.191, 302.743
292.673, 314.234
293.155, 320.380
293.638, 331.602
294.120, 348.188
294.602, 373.011
295.084, 418.417
295.566, 473.213
296.048, 504.245
296.530, 504.962
297.012, 499.869
297.494, 521.367
297.977, 564.470
298.459, 607.984
298.941, 640.799
299.423, 667.196
299.905, 693.349
300.387, 719.729
300.869, 746.840
301.351, 777.950
301.833, 810.919
302.316, 839.524
302.798, 856.175
303.280, 868.681
303.762, 891.009
304.244, 924.528
304.726, 951.062
305.208, 948.827
305.690, 928.579
306.173, 909.682
306.655, 905.834
307.137, 904.473
307.619, 892.673
308.101, 870.094
308.583, 843.804
309.065, 819.254
309.547, 795.346
310.030, 769.992
310.512, 742.904
310.994, 712.517
311.476, 673.920
311.958, 628.125
312.440, 588.677
312.922, 574.529
313.404, 567.045
313.886, 546.408
314.369, 486.329
314.851, 430.347
315.333, 407.800
315.815, 412.781
316.297, 411.883
316.779, 382.981
317.261, 344.820
317.743, 312.701
318.225, 295.358
318.708, 279.576
319.190, 254.857
319.672, 225.956
320.154, 209.013
320.636, 216.976
321.118, 235.085
321.600, 251.271
322.082, 227.628
322.565, 217.555
323.047, 227.058
323.529, 232.042
324.011, 233.080
324.493, 216.526
324.975, 222.160
325.457, 219.453
325.939, 216.575
326.422, 225.719
326.904, 212.332
327.386, 220.572
327.868, 219.958
328.350, 223.610
328.832, 219.046
329.314, 218.184
329.796, 219.834
330.278, 223.713
330.760, 232.295
331.243, 242.157
331.725, 248.766
332.207, 250.064
332.689, 249.127
333.171, 246.323
333.653, 242.551
334.135, 243.521
334.617, 252.242
335.100, 261.809
335.582, 264.178
336.064, 254.745
336.546, 249.678
337.028, 254.427
337.510, 267.062
337.992, 270.203
338.474, 261.230
338.957, 250.690
339.439, 245.576
339.921, 245.222
340.403, 250.825
340.885, 265.375
341.367, 284.039
341.849, 290.515
342.331, 283.645
342.813, 273.357
343.296, 263.235
343.778, 253.515
344.260, 253.281
344.742, 266.420
345.224, 284.003
345.706, 286.285
346.188, 273.923
346.670, 265.666
347.152, 278.329
347.635, 304.618
348.117, 315.137
348.599, 305.233
349.081, 292.435
349.563, 301.547
350.045, 327.573
350.527, 351.624
351.009, 363.089
351.491, 367.060
351.974, 368.487
352.456, 367.037
352.938, 372.082
353.420, 403.197
353.902, 445.656
354.384, 472.329
354.866, 454.901
355.349, 429.960
355.831, 432.598
356.313, 460.843
356.795, 496.157
357.277, 535.170
357.759, 571.916
358.241, 599.032
358.723, 610.630
359.205, 617.328
359.688, 620.581
360.170, 622.856
360.652, 632.582
361.134, 662.233
361.616, 694.910
362.098, 719.274
362.580, 730.597
363.062, 739.103
363.544, 741.624
364.027, 743.877
364.509, 712.354
364.991, 697.293
365.473, 678.222
365.955, 655.365
366.437, 617.390
366.919, 598.926
367.401, 572.638
367.884, 546.018
368.366, 526.270
368.848, 452.080
369.330, 398.746
369.812, 354.158
370.294, 318.100
370.776, 295.572
371.258, 299.517
371.741, 306.092
372.223, 295.551
372.705, 254.131
373.187, 217.788
373.669, 189.019
374.151, 170.215
374.633, 163.129
375.115, 170.845
375.597, 187.186
376.079, 210.630
376.562, 247.773
377.044, 267.933
377.526, 264.101
378.008, 250.168
378.490, 260.764
378.972, 299.081
379.454, 332.677
379.936, 345.373
380.419, 339.703
380.901, 335.413
381.383, 332.397
381.865, 336.976
382.347, 363.187
382.829, 405.643
383.311, 437.398
383.793, 446.565
384.276, 441.858
384.758, 436.771
385.240, 453.606
385.722, 498.940
386.204, 536.887
386.686, 569.397
387.168, 575.507
387.650, 615.822
388.132, 640.600
388.615, 664.814
389.097, 708.593
389.579, 716.327
390.061, 759.815
390.543, 789.050
391.025, 814.997
391.507, 842.719
391.989, 879.910
392.471, 915.661
392.954, 949.922
393.436, 981.901
393.918, 1010.542
394.400, 1037.719
394.882, 1062.102
395.364, 1082.276
395.846, 1110.409
396.328, 1161.937
396.810, 1217.539
397.293, 1258.783
397.775, 1277.602
398.257, 1287.627
398.739, 1292.627
399.221, 1291.872
399.703, 1277.525
400.185, 1247.333
400.668, 1205.360
401.150, 1153.160
401.632, 1086.270
402.114, 1016.644
402.596, 940.938
403.078, 863.594
403.560, 797.997
404.042, 748.160
404.524, 699.966
405.007, 646.505
405.489, 586.692
405.971, 532.459
406.453, 484.073
406.935, 440.597
407.417, 401.571
407.899, 367.170
408.381, 336.307
408.863, 309.686
409.346, 286.023
409.828, 258.981
410.310, 227.937
410.792, 203.064
411.274, 201.872
411.756, 215.200
412.238, 210.689
412.720, 174.593
413.203, 133.610
413.685, 127.898
414.167, 149.637
414.649, 166.994
415.131, 153.782
415.613, 129.666
416.095, 120.458
416.577, 131.082
417.060, 137.967
417.542, 118.959
418.024, 86.988
418.506, 60.420
418.988, 48.515
419.470, 42.494
419.952, 38.892
420.434, 37.575
420.916, 38.844
421.398, 46.127
421.881, 54.027
422.363, 58.870
422.845, 55.966
423.327, 55.088
423.809, 63.114
424.291, 74.703
424.773, 74.292
425.255, 46.393
425.738, 21.735
426.220, 10.417
426.702, 15.727
427.184, 23.958
427.666, 41.217
428.148, 56.214
428.630, 51.933
429.112, 17.727
429.595, 3.388
430.077, 12.819
430.559, 19.953
431.041, 18.503
431.523, 17.217
432.005, 8.716
432.487, 17.966
432.969, 27.966
433.451, 13.311
433.934, 44.165
434.416, 29.959
434.898, 33.785
435.380, 29.403
435.862, 42.891
436.344, 51.374
436.826, 33.057
437.308, 19.415
437.790, 11.005
438.273, 8.484
438.755, 19.489
439.237, 35.521
439.719, 42.473
440.201, 26.467
440.683, 8.889
441.165, 8.492
441.647, 21.187
442.129, 28.836
442.612, 13.789
443.094, 3.466
443.576, 6.962
444.058, 15.925
444.540, 28.455
445.022, 15.287
445.504, 12.970
445.987, 39.536
446.469, 63.545
446.951, 84.297
447.433, 102.232
447.915, 117.353
448.397, 127.970
448.879, 133.508
449.361, 135.156
449.843, 132.330
450.326, 119.762
450.808, 116.822
451.290, 128.970
451.772, 149.779
452.254, 161.616
452.736, 163.194
453.218, 160.775
453.700, 155.138
454.182, 146.628
454.665, 144.264
455.147, 148.682
455.629, 156.538
456.111, 165.006
456.593, 173.779
457.075, 181.517
457.557, 185.846
458.039, 190.929
458.522, 207.811
459.004, 234.186
459.486, 253.229
459.968, 242.227
460.450, 222.594
460.932, 220.309
461.414, 242.355
461.896, 272.349
462.379, 312.207
462.861, 351.025
463.343, 371.121
463.825, 334.260
464.307, 306.639
464.789, 324.364
465.271, 388.798
465.753, 443.218
466.235, 469.260
466.717, 485.460
467.200, 504.628
467.682, 530.303
468.164, 554.585
468.646, 572.456
469.128, 589.845
469.610, 620.851
470.092, 662.718
470.574, 701.958
471.057, 738.696
471.539, 765.466
472.021, 805.107
472.503, 839.588
472.985, 873.858
473.467, 912.479
473.949, 934.098
474.431, 952.130
474.914, 951.899
475.396, 946.293
475.878, 966.883
476.360, 1010.376
476.842, 1047.273
477.324, 1056.101
477.806, 1047.642
478.288, 1037.807
478.770, 1027.371
479.253, 1021.146
479.735, 1028.836
480.217, 1041.959
480.699, 1047.922
481.181, 1039.137
481.663, 1024.564
482.145, 1006.621
482.627, 986.116
483.109, 966.286
483.592, 947.216
484.074, 929.042
484.556, 911.730
485.038, 892.055
485.520, 879.981
486.002, 884.384
486.484, 893.268
486.966, 891.638
487.448, 873.717
487.931, 854.539
488.413, 836.056
488.895, 817.820
489.377, 794.770
489.859, 766.482
490.341, 742.499
490.823, 735.984
491.306, 749.279
491.788, 742.580
492.270, 714.345
492.752, 672.281
493.234, 624.469
493.716, 571.738
494.198, 524.490
494.680, 492.271
495.162, 468.174
495.645, 443.469
496.127, 417.443
496.609, 388.073
497.091, 349.990
497.573, 309.762
498.055, 275.678
498.537, 249.767
499.019, 227.746
499.501, 204.297
499.984, 183.502
500.466, 172.664
500.948, 190.410
501.430, 201.898
501.912, 191.152
502.394, 157.562
502.876, 126.490
503.358, 96.037
503.841, 70.694
504.323, 53.981
504.805, 47.760
505.287, 47.197
505.769, 57.334
506.251, 69.093
506.733, 62.897
507.215, 33.511
507.698, 9.447
508.180, 2.423
508.662, 9.032
509.144, 11.719
509.626, 10.391
510.108, 6.399
510.590, 2.047
511.072, 12.327
511.554, 16.312
512.036, 11.598
512.519, 3.415
513.001, 7.062
513.483, 16.844
513.965, 18.861
514.447, 1.088
514.929, 21.145
515.411, 24.094
515.893, 10.715
516.375, 1.365
516.858, 1.235
517.340, 0.150
517.822, 5.093
518.304, 24.747
518.786, 39.905
519.268, 40.344
519.750, 37.582
520.232, 50.428
520.715, 91.723
521.197, 127.241
521.679, 147.287
522.161, 153.145
522.643, 162.568
523.125, 176.309
523.607, 191.478
524.089, 204.696
524.571, 216.231
525.054, 223.750
525.536, 215.601
526.018, 254.658
526.500, 322.105
526.982, 382.681
527.464, 436.749
527.946, 464.821
528.429, 526.507
528.911, 574.733
529.393, 629.669
529.875, 660.534
530.357, 698.570
530.839, 744.485
531.321, 799.740
531.803, 867.850
532.286, 935.826
532.768, 992.446
533.250, 1049.006
533.732, 1117.566
534.214, 1208.474
534.696, 1302.804
535.178, 1397.824
535.660, 1494.199
536.142, 1596.007
536.625, 1699.775
537.107, 1817.425
537.589, 1959.279
538.071, 2128.784
538.553, 2287.187
539.035, 2432.362
539.517, 2577.426
539.999, 2731.910
540.481, 2898.766
540.964, 3090.975
541.446, 3316.291
541.928, 3562.224
542.410, 3806.896
542.892, 4054.519
543.374, 4320.868
543.856, 4625.052
544.338, 4948.845
544.820, 5275.878
545.303, 5601.493
545.785, 5941.337
546.267, 6308.734
546.749, 6693.292
547.231, 7087.163
547.713, 7485.587
548.195, 7897.279
548.677, 8315.414
549.159, 8750.591
549.642, 9220.229
550.124, 9760.095
550.606, 10278.950
551.088, 10743.162
551.570, 11154.546
552.052, 11630.599
552.534, 12190.361
553.016, 12759.298
553.499, 13281.255
553.981, 13755.795
554.463, 14211.198
554.945, 14661.552
555.427, 15052.714
555.909, 15328.822
556.391, 15489.542
556.873, 15533.989
557.356, 15467.271
557.838, 15279.579
558.320, 14961.344
558.802, 14515.751
559.284, 13942.175
559.766, 13165.258
560.248, 12315.402
560.730, 11463.671
561.213, 10632.919
561.695, 9809.998
562.177, 8965.518
562.659, 8139.907
563.141, 7377.846
563.623, 6678.237
564.105, 6032.491
564.587, 5440.047
565.069, 4906.931
565.552, 4447.695
566.034, 4076.168
566.516, 3736.845
566.998, 3406.712
567.480, 3091.089
567.962, 2800.731
568.444, 2537.802
568.926, 2303.404
569.408, 2113.190
569.891, 1954.497
570.373, 1801.882
570.855, 1640.396
571.337, 1514.790
571.819, 1407.540
572.301, 1342.458
572.783, 1266.857
573.265, 1181.552
573.747, 1057.771
574.230, 984.091
574.712, 895.019
575.194, 817.801
575.676, 751.770
576.158, 693.311
576.640, 641.905
577.122, 599.150
577.604, 559.722
578.086, 525.804
578.569, 492.798
579.051, 453.406
579.533, 406.460
580.015, 368.397
580.497, 343.496
580.979, 325.955
581.461, 303.501
581.943, 277.711
582.426, 258.276
582.908, 256.965
583.390, 260.918
583.872, 251.849
584.354, 230.750
584.836, 208.018
585.318, 186.826
585.800, 168.544
586.282, 153.372
586.765, 139.854
587.247, 136.370
587.729, 156.041
588.211, 179.765
588.693, 183.165
589.175, 152.936
589.657, 124.495
590.140, 104.313
590.622, 89.988
591.104, 69.555
591.586, 42.089
592.068, 23.774
592.550, 31.312
593.032, 58.208
593.514, 66.843
593.996, 56.686
594.479, 42.856
594.961, 37.154
595.443, 37.456
595.925, 40.127
596.407, 45.246
596.889, 49.321
597.371, 50.169
597.853, 47.256
598.335, 40.202
598.818, 20.775
599.300, 8.178
599.782, 14.496
600.264, 34.779
600.746, 44.808
601.228, 33.516
601.710, 25.227
602.192, 30.479
602.674, 49.518
603.157, 54.093
603.639, 41.781
604.121, 24.465
604.603, 9.219
605.085, 3.519
605.567, 8.851
606.049, 5.585
606.531, 2.988
607.013, 15.921
607.496, 31.308
607.978, 43.938
608.460, 53.966
608.942, 57.815
609.424, 46.436
609.906, 25.075
610.388, 12.126
610.870, 19.628
611.353, 34.151
611.835, 53.016
612.317, 78.444
612.799, 88.819
613.281, 75.839
613.763, 55.755
614.245, 39.191
614.727, 27.198
615.209, 13.359
615.692, 6.879
616.174, 21.292
616.656, 16.976
617.138, 30.997
617.620, 2.913
618.102, 14.943
618.584, 23.124
619.067, 7.348
619.549, 12.079
620.031, 11.500
620.513, 10.094
620.995, 36.528
621.477, 11.646
621.959, 37.627
622.441, 43.294
622.923, 58.250
623.406, 48.917
623.888, 37.801
624.370, 51.975
624.852, 60.571
625.334, 60.831
625.816, 58.005
626.298, 60.496
626.780, 71.352
627.263, 68.800
627.745, 42.601
628.227, 9.270
628.709, 8.018
629.191, 35.053
629.673, 60.992
630.155, 72.408
630.637, 73.704
631.119, 67.288
631.602, 54.400
632.084, 43.889
632.566, 40.585
633.048, 41.749
633.530, 47.750
634.012, 62.290
634.494, 67.035
634.976, 47.526
635.458, 23.505
635.941, 11.472
636.423, 17.206
636.905, 22.135
637.387, 24.381
637.869, 25.736
638.351, 30.975
638.833, 40.388
639.315, 44.810
639.797, 39.165
640.280, 28.539
640.762, 22.473
641.244, 20.508
641.726, 20.162
642.208, 23.326
642.690, 25.158
643.172, 21.193
643.654, 11.100
644.137, 2.001
644.619, 20.076
645.101, 1.626
645.583, 13.645
646.065, 16.504
646.547, 17.184
647.029, 3.729
647.511, 9.204
647.994, 15.481
648.476, 4.530
648.958, 23.979
649.440, 7.024
649.922, 22.861
650.404, 24.475
650.886, 13.867
651.368, 3.785
651.851, 0.229
652.333, 0.086
652.815, 3.812
653.297, 10.559
653.779, 15.373
654.261, 18.269
654.743, 16.413
655.225, 4.676
655.707, 20.541
656.190, 35.245
656.672, 28.308
657.154, 16.450
657.636, 11.113
658.118, 16.842
658.600, 13.450
659.082, 4.545
659.564, 22.936
660.046, 17.443
660.529, 9.589
661.011, 30.310
661.493, 36.480
661.975, 35.206
662.457, 33.881
662.939, 33.026
663.421, 34.252
663.903, 45.646
664.385, 54.084
664.868, 45.598
665.350, 23.616
665.832, 9.081
666.314, 9.554
666.796, 16.986
667.278, 31.917
667.760, 56.880
668.242, 67.300
668.724, 55.646
669.207, 44.491
669.689, 57.206
670.171, 92.905
670.653, 111.873
671.135, 107.409
671.617, 98.364
672.099, 109.327
672.581, 132.338
673.064, 149.683
673.546, 152.381
674.028, 152.616
674.510, 158.547
674.992, 168.410
675.474, 181.877
675.956, 204.756
676.438, 221.794
676.920, 224.182
677.403, 217.366
677.885, 222.628
678.367, 245.150
678.849, 267.921
679.331, 284.182
679.813, 294.423
680.295, 299.055
680.778, 297.535
681.260, 300.247
681.742, 319.357
682.224, 347.026
682.706, 369.604
683.188, 385.816
683.670, 396.769
684.152, 396.682
684.634, 395.031
685.117, 401.908
685.599, 429.671
686.081, 448.853
686.563, 449.562
687.045, 442.215
687.527, 438.715
688.009, 438.755
688.491, 443.746
688.973, 454.181
689.456, 469.554
689.938, 491.958
690.420, 520.592
690.902, 543.091
691.384, 552.423
691.866, 553.968
692.348, 553.174
692.830, 550.914
693.312, 551.322
693.795, 558.738
694.277, 567.713
694.759, 574.563
695.241, 578.807
695.723, 584.383
696.205, 597.742
696.687, 607.062
697.169, 604.584
697.652, 586.294
698.134, 567.369
698.616, 535.135
699.098, 509.498
699.580, 503.012
700.062, 491.869
700.544, 476.304
701.026, 443.110
701.508, 432.346
701.991, 413.843
702.473, 390.221
702.955, 378.069
703.437, 349.309
703.919, 324.852
704.401, 320.518
704.883, 326.169
705.365, 310.314
705.847, 254.529
706.330, 204.685
706.812, 163.784
707.294, 135.385
707.776, 123.893
708.258, 132.344
708.740, 141.971
709.222, 145.739
709.705, 142.939
710.187, 128.590
710.669, 104.032
711.151, 82.337
711.633, 78.602
712.115, 77.749
712.597, 63.350
713.079, 32.538
713.561, 13.318
714.044, 22.246
714.526, 36.492
715.008, 40.466
715.490, 28.083
715.972, 24.367
716.454, 30.746
716.936, 41.132
717.418, 53.863
717.901, 69.281
718.383, 70.531
718.865, 50.698
719.347, 26.219
719.829, 13.812
720.311, 11.632
720.793, 14.470
721.275, 3.460
721.757, 7.827
722.240, 4.306
722.722, 10.689
723.204, 11.265
723.686, 10.179
724.168, 3.939
724.650, 8.504
725.132, 13.095
725.614, 8.040
726.096, 1.821
726.579, 4.504
727.061, 4.399
727.543, 21.165
728.025, 27.222
728.507, 24.045
728.989, 20.994
729.471, 26.580
729.953, 32.860
730.435, 32.134
730.918, 23.875
731.400, 17.327
731.882, 16.718
732.364, 17.242
732.846, 17.597
733.328, 19.367
733.810, 11.050
734.292, 11.681
734.775, 34.333
735.257, 44.310
735.739, 42.594
736.221, 34.377
736.703, 19.036
737.185, 5.112
737.667, 2.908
738.149, 6.801
738.631, 8.202
739.114, 1.877
739.596, 0.417
740.078, 4.700
740.560, 16.900
741.042, 37.288
741.524, 82.586
742.006, 104.618
742.489, 91.733
742.971, 60.444
743.453, 40.578
743.935, 31.992
744.417, 30.633
744.899, 34.838
745.381, 46.120
745.863, 74.570
746.345, 112.998
746.828, 140.043
747.310, 137.439
747.792, 128.418
748.274, 123.313
748.756, 121.827
749.238, 121.026
749.720, 120.054
750.202, 120.912
750.684, 128.321
751.167, 139.380
751.649, 125.509
752.131, 82.158
752.613, 48.833
753.095, 59.969
753.577, 95.292
754.059, 104.114
754.541, 87.816
755.023, 73.913
755.506, 80.889
755.988, 96.895
756.470, 112.800
756.952, 127.140
757.434, 145.731
757.916, 177.731
758.398, 206.774
758.880, 223.026
759.362, 223.998
759.845, 225.157
760.327, 226.525
760.809, 228.239
761.291, 232.003
761.773, 236.409
762.255, 236.567
762.737, 231.739
763.219, 224.316
763.702, 207.438
764.184, 193.247
764.666, 196.543
765.148, 234.181
765.630, 264.754
766.112, 283.582
766.594, 290.614
767.076, 281.494
767.558, 247.570
768.041, 231.563
768.523, 242.052
769.005, 264.977
769.487, 279.860
769.969, 288.242
770.451, 296.578
770.933, 308.616
771.416, 317.671
771.898, 312.495
772.380, 301.665
772.862, 300.663
773.344, 328.162
773.826, 349.511
774.308, 354.752
774.790, 349.919
775.272, 347.971
775.755, 349.466
776.237, 351.434
776.719, 351.242
777.201, 353.050
777.683, 371.641
778.165, 402.910
778.647, 427.140
779.129, 426.374
779.612, 420.499
780.094, 429.936
780.576, 449.694
781.058, 463.074
781.540, 463.243
782.022, 456.133
782.504, 440.487
782.986, 465.798
783.468, 481.454
783.951, 487.960
784.433, 456.742
784.915, 474.222
785.397, 471.179
785.879, 466.994
786.361, 490.295
786.843, 463.626
787.325, 486.414
787.807, 488.970
788.290, 486.998
788.772, 472.301
789.254, 484.777
789.736, 459.933
790.218, 484.986
790.700, 497.949
791.182, 499.382
791.664, 455.522
792.146, 471.073
792.629, 462.940
793.111, 453.840
793.593, 477.745
794.075, 440.904
794.557, 464.336
795.039, 459.328
795.521, 480.423
796.003, 522.752
796.485, 542.467
796.968, 530.885
797.450, 518.656
797.932, 514.529
798.414, 504.828
798.896, 475.865
799.378, 422.910
799.860, 401.525
800.343, 416.000
800.825, 438.538
801.307, 446.126
801.789, 443.714
802.271, 440.381
802.753, 437.263
803.235, 432.195
803.717, 418.766
804.199, 406.125
804.682, 402.580
805.164, 415.191
805.646, 421.702
806.128, 422.050
806.610, 416.350
807.092, 400.122
807.574, 373.643
808.056, 364.956
808.539, 377.996
809.021, 393.786
809.503, 392.325
809.985, 382.012
810.467, 375.865
810.949, 378.152
811.431, 377.196
811.913, 362.620
812.395, 346.053
812.878, 337.829
813.360, 340.874
813.842, 346.639
814.324, 357.413
814.806, 366.359
815.288, 345.714
815.770, 314.602
816.252, 350.279
816.734, 369.746
817.217, 373.874
817.699, 316.713
818.181, 338.697
818.663, 328.967
819.145, 317.936
819.627, 351.063
820.109, 332.261
820.591, 337.010
821.073, 327.669
821.556, 297.644
822.038, 287.498
822.520, 303.922
823.002, 328.189
823.484, 343.857
823.966, 348.866
824.448, 333.374
824.930, 287.659
825.413, 252.694
825.895, 270.818
826.377, 307.281
826.859, 325.937
827.341, 304.583
827.823, 288.623
828.305, 277.690
828.787, 272.827
829.269, 279.021
829.752, 295.773
830.234, 300.486
830.716, 288.417
831.198, 278.853
831.680, 299.158
832.162, 334.319
832.644, 363.290
833.127, 382.711
833.609, 387.064
834.091, 361.814
834.573, 328.854
835.055, 309.214
835.537, 303.789
836.019, 310.477
836.501, 333.962
836.983, 358.502
837.466, 365.465
837.948, 358.052
838.430, 347.015
838.912, 334.260
839.394, 325.445
839.876, 326.970
840.358, 331.874
840.840, 332.503
841.322, 322.803
841.805, 322.488
842.287, 341.357
842.769, 360.360
843.251, 356.778
843.733, 328.685
844.215, 321.553
844.697, 341.425
845.179, 364.497
845.661, 366.495
846.144, 358.641
846.626, 359.116
847.108, 372.254
847.590, 380.165
848.072, 372.265
848.554, 358.204
849.036, 346.816
849.518, 341.909
850.000, 323.324
850.483, 284.911
850.965, 256.639
851.447, 269.521
851.929, 307.478
852.411, 318.987
852.893, 297.726
853.375, 277.688
853.857, 285.823
854.340, 302.706
854.822, 310.054
855.304, 299.885
855.786, 297.772
856.268, 307.051
856.750, 318.161
857.232, 327.917
857.714, 336.833
858.196, 316.553
858.679, 264.265
859.161, 222.354
859.643, 240.803
860.125, 283.675
860.607, 307.465
861.089, 306.934
861.571, 299.061
862.054, 279.217
862.536, 263.515
863.018, 264.393
863.500, 284.420
863.982, 279.802
864.464, 244.305
864.946, 212.593
865.428, 217.723
865.910, 241.513
866.393, 237.861
866.875, 208.375
867.357, 183.682
867.839, 189.185
868.321, 198.411
868.803, 191.710
869.285, 167.980
869.767, 160.591
870.250, 178.705
870.732, 193.597
871.214, 190.900
871.696, 175.127
872.178, 164.616
872.660, 158.991
873.142, 153.415
873.624, 144.596
874.106, 135.009
874.589, 126.406
875.071, 118.706
875.553, 111.192
876.035, 102.745
876.517, 95.439
876.999, 89.154
877.481, 84.427
877.963, 85.436
878.445, 92.219
878.928, 93.231
879.410, 79.180
879.892, 61.947
880.374, 60.537
880.856, 68.410
881.338, 69.886
881.820, 43.390
882.302, 28.341
882.784, 46.368
883.267, 79.179
883.749, 89.888
884.231, 74.176
884.713, 61.303
885.195, 59.075
885.677, 58.662
886.159, 40.605
886.641, 14.368
887.123, 2.900
887.606, 27.302
888.088, 44.163
888.570, 26.834
889.052, 5.296
889.534, 27.014
890.016, 38.243
890.498, 35.885
890.981, 15.791
891.463, 9.050
891.945, 20.590
892.427, 22.829
892.909, 29.540
893.391, 45.251
893.873, 52.475
894.355, 26.905
894.837, 5.719
895.320, 19.450
895.802, 0.499
896.284, 5.671
896.766, 7.280
897.248, 21.668
897.730, 20.100
898.212, 6.264
898.694, 4.471
899.177, 15.726
899.659, 28.954
900.141, 39.191
900.623, 45.140
901.105, 45.489
901.587, 40.040
902.069, 28.733
902.551, 0.014
903.033, 16.698
903.516, 2.709
903.998, 35.276
904.480, 52.302
904.962, 48.960
905.444, 39.663
905.926, 30.895
906.408, 21.835
906.890, 1.811
907.372, 21.500
907.855, 17.113
908.337, 70.748
908.819, 78.395
909.301, 57.605
909.783, 43.774
910.265, 36.521
910.747, 55.443
911.229, 40.645
911.711, 39.408
912.194, 38.755
912.676, 19.294
913.158, 34.566
913.640, 15.446
914.122, 10.083
914.604, 1.554
915.086, 0.430
915.568, 1.781
916.050, 17.602
916.533, 25.879
917.015, 22.296
917.497, 34.288
917.979, 18.436
918.461, 27.006
918.943, 46.109
919.425, 43.183
919.907, 55.394
920.390, 61.833
920.872, 42.053
921.354, 67.856
921.836, 73.939
922.318, 59.777
922.800, 70.658
923.282, 74.955
923.765, 71.414
924.247, 82.546
924.729, 99.049
925.211, 106.845
925.693, 105.391
926.175, 102.548
926.657, 93.365
927.139, 92.143
927.621, 108.579
928.104, 139.111
928.586, 157.640
929.068, 163.380
929.550, 162.684
930.032, 155.343
930.514, 146.304
930.996, 142.539
931.478, 143.448
931.960, 147.340
932.443, 160.229
932.925, 168.061
933.407, 159.595
933.889, 146.527
934.371, 149.982
934.853, 172.511
935.335, 186.241
935.817, 176.446
936.299, 187.252
936.782, 180.293
937.264, 206.449
937.746, 224.571
938.228, 235.091
938.710, 215.225
939.192, 234.068
939.674, 253.154
940.156, 271.612
940.638, 289.995
941.121, 310.566
941.603, 334.213
942.085, 351.996
942.567, 350.040
943.049, 340.292
943.531, 341.482
944.013, 354.033
944.495, 362.768
944.978, 364.496
945.460, 359.826
945.942, 339.481
946.424, 309.371
946.906, 323.840
947.388, 386.664
947.870, 433.958
948.352, 424.885
948.834, 399.885
949.317, 417.728
949.799, 459.840
950.281, 485.104
950.763, 463.047
951.245, 443.244
951.727, 432.112
952.209, 429.758
952.692, 438.060
953.174, 457.866
953.656, 476.521
954.138, 491.563
954.620, 499.383
955.102, 494.803
955.584, 483.402
956.066, 469.670
956.548, 449.405
957.031, 440.938
957.513, 450.980
957.995, 468.024
958.477, 472.402
958.959, 466.607
959.441, 446.386
959.923, 470.882
960.405, 486.491
960.888, 492.758
961.370, 458.199
961.852, 473.502
962.334, 466.928
962.816, 470.960
963.298, 464.128
963.780, 466.839
964.262, 485.712
964.744, 511.104
965.227, 512.784
965.709, 493.928
966.191, 475.569
966.673, 474.106
967.155, 474.726
967.637, 460.803
968.119, 441.435
968.601, 428.637
969.083, 440.310
969.566, 432.061
970.048, 395.252
970.530, 356.005
971.012, 340.611
971.494, 344.737
971.976, 347.330
972.458, 346.863
972.940, 342.037
973.422, 325.026
973.905, 309.633
974.387, 310.925
974.869, 328.257
975.351, 323.235
975.833, 285.309
976.315, 262.532
976.797, 285.252
977.279, 328.421
977.761, 335.975
978.244, 316.813
978.726, 296.716
979.208, 280.900
979.690, 273.498
980.172, 283.260
980.654, 299.173
981.136, 305.428
981.619, 300.921
982.101, 292.280
982.583, 279.725
983.065, 265.779
983.547, 251.827
984.029, 239.015
984.511, 228.782
984.993, 221.171
985.475, 217.142
985.958, 218.075
986.440, 221.962
986.922, 230.458
987.404, 242.496
987.886, 240.942
988.368, 225.983
988.850, 210.062
989.332, 200.861
989.815, 193.734
990.297, 183.387
990.779, 171.609
991.261, 163.536
991.743, 157.835
992.225, 161.546
992.707, 183.272
993.189, 204.666
993.671, 188.052
994.154, 143.593
994.636, 117.985
995.118, 123.318
995.600, 134.705
996.082, 133.633
996.564, 131.252
997.046, 139.849
997.528, 163.521
998.010, 175.383
998.493, 172.493
998.975, 167.614
999.457, 168.960
999.939, 174.235
1000.421, 168.379
1000.903, 158.764
1001.385, 138.230
1001.867, 169.067
1002.349, 187.482
1002.832, 194.155
1003.314, 153.760
1003.796, 174.239
1004.278, 170.389
1004.760, 178.659
1005.242, 195.509
1005.724, 228.105
1006.206, 251.801
1006.689, 268.101
1007.171, 277.354
1007.653, 276.987
1008.135, 279.610
1008.617, 287.261
1009.099, 297.204
1009.581, 307.604
1010.063, 318.694
1010.545, 333.972
1011.028, 352.891
1011.510, 369.337
1011.992, 372.496
1012.474, 379.206
1012.956, 402.009
1013.438, 437.485
1013.920, 474.889
1014.402, 517.755
1014.885, 550.301
1015.367, 568.952
1015.849, 578.272
1016.331, 579.729
1016.813, 578.326
1017.295, 583.391
1017.777, 595.723
1018.259, 619.993
1018.741, 673.153
1019.224, 725.389
1019.706, 756.769
1020.188, 767.488
1020.670, 786.622
1021.152, 814.237
1021.634, 847.890
1022.116, 892.614
1022.598, 937.367
1023.081, 963.351
1023.563, 980.328
1024.045, 1017.970
1024.527, 1107.241
1025.009, 1175.492
1025.491, 1208.368
1025.973, 1225.123
1026.455, 1257.413
1026.938, 1298.487
1027.420, 1322.956
1027.902, 1323.804
1028.384, 1330.103
1028.866, 1358.799
1029.348, 1400.741
1029.830, 1456.841
1030.312, 1526.733
1030.794, 1563.765
1031.276, 1563.866
1031.759, 1568.935
1032.241, 1603.194
1032.723, 1650.811
1033.205, 1691.565
1033.687, 1726.895
1034.169, 1759.828
1034.651, 1781.990
1035.133, 1814.376
1035.616, 1865.114
1036.098, 1916.024
1036.580, 1939.032
1037.062, 1938.238
1037.544, 1944.616
1038.026, 1961.840
1038.508, 1985.635
1038.990, 2013.030
1039.473, 2045.480
1039.955, 2086.889
1040.437, 2136.883
1040.919, 2171.964
1041.401, 2183.459
1041.883, 2217.641
1042.365, 2299.510
1042.847, 2404.188
1043.329, 2493.677
1043.812, 2571.915
1044.294, 2645.402
1044.776, 2701.397
1045.258, 2777.640
1045.740, 2881.437
1046.222, 3005.755
1046.704, 3149.903
1047.186, 3314.601
1047.668, 3475.271
1048.151, 3633.000
1048.633, 3797.595
1049.115, 3968.055
1049.597, 4156.713
1050.079, 4368.387
1050.561, 4608.524
1051.043, 4892.045
1051.525, 5232.177
1052.008, 5564.083
1052.490, 5865.328
1052.972, 6162.543
1053.454, 6507.877
1053.936, 6880.980
1054.418, 7231.178
1054.900, 7501.348
1055.382, 7894.803
1055.865, 8622.424
1056.347, 9324.105
1056.829, 9808.705
1057.311, 10083.095
1057.793, 10201.893
1058.275, 10176.700
1058.757, 10141.640
1059.239, 10201.284
1059.721, 10255.371
1060.203, 10268.030
1060.686, 10217.823
1061.168, 10064.118
1061.650, 9791.556
1062.132, 9474.268
1062.614, 9122.687
1063.096, 8723.149
1063.578, 8267.472
1064.060, 7759.885
1064.543, 7198.640
1065.025, 6578.028
1065.507, 5983.701
1065.989, 5445.992
1066.471, 4924.492
1066.953, 4396.780
1067.435, 3881.312
1067.917, 3394.679
1068.400, 2942.117
1068.882, 2569.092
1069.364, 2310.866
1069.846, 2096.137
1070.328, 1887.041
1070.810, 1691.250
1071.292, 1524.043
1071.774, 1393.083
1072.256, 1244.534
1072.739, 1072.824
1073.221, 912.462
1073.703, 780.687
1074.185, 679.664
1074.667, 624.612
1075.149, 606.102
1075.631, 578.458
1076.113, 532.680
1076.596, 473.272
1077.078, 392.912
1077.560, 310.524
1078.042, 257.485
1078.524, 228.665
1079.006, 207.901
1079.488, 193.650
1079.970, 176.654
1080.453, 149.096
1080.935, 118.794
1081.417, 90.384
1081.899, 64.344
1082.381, 43.267
1082.863, 26.225
1083.345, 23.091
1083.827, 50.510
1084.309, 78.755
1084.792, 78.394
1085.274, 60.339
1085.756, 42.463
1086.238, 21.659
1086.720, 16.444
1087.202, 33.838
1087.684, 45.606
1088.166, 12.356
1088.648, 38.928
1089.131, 53.489
1089.613, 33.311
1090.095, 15.550
1090.577, 5.146
1091.059, 14.119
1091.541, 58.781
1092.023, 110.125
1092.505, 99.695
1092.988, 39.256
1093.470, 9.691
1093.952, 35.679
1094.434, 43.263
1094.916, 14.245
1095.398, 14.892
1095.880, 12.745
1096.362, 19.209
1096.844, 42.874
1097.327, 58.382
1097.809, 60.768
1098.291, 40.748
1098.773, 14.513
1099.255, 6.590
1099.737, 20.206
1100.219, 20.525
1100.701, 8.083
1101.183, 19.446
1101.666, 8.857
1102.148, 7.275
1102.630, 19.384
1103.112, 25.419
1103.594, 13.184
1104.076, 13.159
1104.558, 26.232
1105.040, 3.529
1105.523, 20.682
1106.005, 42.488
1106.487, 55.953
1106.969, 43.655
1107.451, 11.087
1107.933, 5.114
1108.415, 4.451
1108.897, 12.108
1109.380, 1.894
1109.862, 3.829
1110.344, 5.344
1110.826, 9.682
1111.308, 3.482
1111.790, 5.822
1112.272, 8.524
1112.754, 0.638
1113.236, 12.075
1113.719, 4.346
1114.201, 2.049
1114.683, 4.118
1115.165, 16.642
1115.647, 24.832
1116.129, 28.935
1116.611, 28.113
1117.093, 17.518
1117.575, 3.749
1118.058, 9.707
1118.540, 17.408
1119.022, 24.694
1119.504, 10.175
1119.986, 1.019
1120.468, 3.076
1120.950, 12.951
1121.432, 3.076
1121.915, 3.634
1122.397, 4.654
1122.879, 8.798
1123.361, 5.201
1123.843, 12.311
1124.325, 23.893
1124.807, 28.559
1125.289, 29.306
1125.771, 34.906
1126.254, 44.887
1126.736, 55.577
1127.218, 66.946
1127.700, 75.466
1128.182, 77.677
1128.664, 76.100
1129.146, 72.659
1129.628, 67.452
1130.110, 59.378
1130.593, 47.651
1131.075, 41.312
1131.557, 45.010
1132.039, 56.176
1132.521, 80.738
1133.003, 108.217
1133.485, 119.666
1133.967, 102.200
1134.450, 91.518
1134.932, 89.695
1135.414, 88.452
1135.896, 79.635
1136.378, 67.512
1136.860, 56.009
1137.342, 47.242
1137.824, 48.805
1138.307, 81.267
1138.789, 96.589
1139.271, 80.504
1139.753, 58.393
1140.235, 73.864
1140.717, 110.461
1141.199, 120.124
1141.681, 96.804
1142.163, 77.297
1142.646, 79.134
1143.128, 88.456
1143.610, 104.402
1144.092, 120.778
1144.574, 114.269
1145.056, 90.707
1145.538, 82.165
1146.020, 102.865
1146.502, 117.766
1146.985, 96.728
1147.467, 73.486
1147.949, 78.321
1148.431, 107.920
1148.913, 91.086
1149.395, 114.574
1149.877, 124.722
1150.359, 125.684
1150.842, 91.236
1151.324, 107.424
1151.806, 109.170
1152.288, 107.503
1152.770, 103.492
1153.252, 82.290
1153.734, 105.046
1154.216, 117.507
1154.698, 119.859
1155.181, 81.888
1155.663, 95.939
1156.145, 89.112
1156.627, 81.407
1157.109, 102.445
1157.591, 69.301
1158.073, 89.126
1158.555, 88.731
1159.037, 98.005
1159.520, 86.269
1160.002, 80.551
1160.484, 95.130
1160.966, 97.678
1161.448, 82.583
1161.930, 70.337
1162.412, 75.872
1162.894, 90.307
1163.377, 90.103
1163.859, 80.989
1164.341, 74.954
1164.823, 76.270
1165.305, 76.003
1165.787, 65.406
1166.269, 57.941
1166.751, 60.253
1167.234, 69.601
1167.716, 77.562
1168.198, 83.526
1168.680, 85.326
1169.162, 82.959
1169.644, 79.816
1170.126, 75.159
1170.608, 73.091
1171.090, 75.423
1171.573, 81.825
1172.055, 85.813
1172.537, 87.500
1173.019, 85.991
1173.501, 76.399
1173.983, 68.237
1174.465, 63.818
1174.947, 63.176
1175.430, 67.982
1175.912, 77.815
1176.394, 86.796
1176.876, 94.572
1177.358, 99.930
1177.840, 97.737
1178.322, 95.609
1178.804, 99.958
1179.286, 105.517
1179.769, 97.843
1180.251, 76.464
1180.733, 74.150
1181.215, 93.508
1181.697, 105.335
1182.179, 70.901
1182.661, 36.061
1183.143, 38.168
1183.625, 65.858
1184.108, 85.426
1184.590, 97.182
1185.072, 88.647
1185.554, 74.246
1186.036, 94.532
1186.518, 106.370
1187.000, 110.214
1187.482, 82.195
1187.965, 95.120
1188.447, 91.275
1188.929, 86.555
1189.411, 104.837
1189.893, 96.359
1190.375, 91.662
1190.857, 79.004
1191.339, 76.168
1191.822, 64.834
1192.304, 83.608
1192.786, 95.054
1193.268, 99.524
1193.750, 76.251
1194.232, 88.501
1194.714, 86.187
1195.196, 90.715
1195.678, 78.109
1196.161, 89.220
1196.643, 84.333
1197.125, 77.998
1197.607, 69.421
1198.089, 62.642
1198.571, 57.868
1199.053, 57.486
1199.535, 70.034
1200.017, 87.941
1200.500, 96.602
1200.982, 94.605
1201.464, 79.173
1201.946, 45.616
1202.428, 19.171
1202.910, 29.145
1203.392, 52.313
1203.874, 56.846
1204.357, 49.297
1204.839, 56.130
1205.321, 97.888
1205.803, 107.114
1206.285, 69.883
1206.767, 30.884
1207.249, 45.701
1207.731, 82.064
1208.214, 99.769
1208.696, 98.309
1209.178, 89.291
1209.660, 67.700
1210.142, 57.936
1210.624, 63.263
1211.106, 75.276
1211.588, 90.052
1212.070, 101.219
1212.552, 95.377
1213.035, 71.077
1213.517, 62.478
1213.999, 79.700
1214.481, 91.259
1214.963, 88.852
1215.445, 80.589
1215.927, 77.274
1216.409, 77.191
1216.892, 78.654
1217.374, 81.316
1217.856, 85.917
1218.338, 96.712
1218.820, 96.276
1219.302, 73.516
1219.784, 46.959
1220.266, 48.579
1220.749, 64.139
1221.231, 70.697
1221.713, 60.975
1222.195, 59.895
1222.677, 71.344
1223.159, 82.139
1223.641, 86.826
1224.123, 86.683
1224.605, 82.685
1225.088, 75.882
1225.570, 66.611
1226.052, 50.168
1226.534, 49.932
1227.016, 73.523
1227.498, 84.795
1227.980, 49.652
1228.462, 5.093
1228.944, 10.341
1229.427, 44.946
1229.909, 72.811
1230.391, 92.669
1230.873, 85.501
1231.355, 43.198
1231.837, 8.595
1232.319, 22.182
1232.801, 52.852
1233.284, 61.570
1233.766, 54.865
1234.248, 46.446
1234.730, 36.109
1235.212, 29.025
1235.694, 23.777
1236.176, 27.753
1236.658, 56.786
1237.141, 90.270
1237.623, 106.659
1238.105, 107.188
1238.587, 92.718
1239.069, 54.486
1239.551, 34.368
1240.033, 36.385
1240.515, 47.178
1240.997, 61.016
1241.479, 73.261
1241.962, 80.648
1242.444, 82.366
1242.926, 77.172
1243.408, 63.968
1243.890, 48.790
1244.372, 31.382
1244.854, 20.822
1245.336, 28.547
1245.819, 44.081
1246.301, 64.948
1246.783, 85.406
1247.265, 88.046
1247.747, 69.945
1248.229, 54.166
1248.711, 43.019
1249.193, 35.250
1249.676, 27.305
1250.158, 23.931
1250.640, 32.368
1251.122, 48.270
1251.604, 58.485
1252.086, 63.196
1252.568, 62.044
1253.050, 54.465
1253.532, 46.529
1254.015, 43.330
1254.497, 41.294
1254.979, 35.760
1255.461, 29.854
1255.943, 38.323
1256.425, 59.134
1256.907, 64.654
1257.389, 46.195
1257.871, 31.088
1258.354, 44.777
1258.836, 58.856
1259.318, 53.196
1259.800, 37.157
1260.282, 48.427
1260.764, 78.993
1261.246, 89.875
1261.728, 68.223
1262.211, 41.259
1262.693, 13.881
1263.175, 2.988
1263.657, 2.090
1264.139, 10.658
1264.621, 19.057
1265.103, 24.232
1265.585, 32.259
1266.068, 48.383
1266.550, 50.381
1267.032, 9.032
1267.514, 16.530
1267.996, 8.192
1268.478, 55.630
1268.960, 46.373
1269.442, 5.100
1269.924, 10.545
1270.407, 22.452
1270.889, 52.256
1271.371, 74.618
1271.853, 85.762
1272.335, 81.231
1272.817, 66.666
1273.299, 47.755
1273.781, 28.352
1274.264, 15.378
1274.746, 12.317
1275.228, 10.266
1275.710, 7.380
1276.192, 11.313
1276.674, 28.909
1277.156, 51.263
1277.638, 72.575
1278.120, 85.495
1278.603, 79.348
1279.085, 43.471
1279.567, 29.388
1280.049, 33.984
1280.531, 44.723
1281.013, 46.145
1281.495, 38.632
1281.977, 29.702
1282.459, 18.996
1282.942, 10.282
1283.424, 2.929
1283.906, 2.087
1284.388, 7.761
1284.870, 12.433
1285.352, 9.180
1285.834, 4.863
1286.316, 3.845
1286.799, 4.412
1287.281, 3.668
1287.763, 1.236
1288.245, 10.149
1288.727, 30.199
1289.209, 39.737
1289.691, 18.363
1290.173, 0.487
1290.656, 1.977
1291.138, 11.285
1291.620, 7.355
1292.102, 0.000
##END=



