##NAMES=Mackayite
##RRUFFID=R060592
##IDEAL CHEMISTRY=Fe^3+^Te^4+^_2_O_5_(OH)
##LOCALITY=Lone Pine mine, Lone Pine Hill area, Wilcox District, Catron County, New Mexico, USA
##OWNER=RRUFF
##SOURCE=Michael Scott
##DESCRIPTION=Greenish-brown octahedral crystals associated with quartz
##STATUS=The identification of this mineral is confirmed by single-crystal X-ray diffraction and chemical analysis.
##URL=rruff.info/R060592
##MEASURED CHEMISTRY=(Fe^3+^_0.98_Al_0.02_)_Î£=1_Te^4+^_2.00_O_5_(OH) ; OH by difference and stoichiometry
113.809, 0.000
114.291, 44.269
114.773, 20.957
115.256, 1051.524
115.738, 2622.116
116.220, 4575.500
116.702, 6891.379
117.184, 9431.257
117.666, 12059.583
118.148, 14668.977
118.630, 17472.291
119.113, 20542.875
119.595, 23909.740
120.077, 27586.641
120.559, 31966.473
121.041, 36384.637
121.523, 40365.145
122.005, 44359.668
122.487, 47211.840
122.969, 47726.477
123.451, 46085.852
123.934, 43914.578
124.416, 40698.945
124.898, 37007.613
125.380, 33960.523
125.862, 32288.707
126.344, 31529.988
126.826, 30851.250
127.308, 30626.426
127.791, 30189.830
128.273, 28734.740
128.755, 26347.525
129.237, 23398.703
129.719, 19694.254
130.201, 15524.997
130.683, 11749.927
131.165, 8435.684
131.648, 5619.239
132.130, 3379.213
132.612, 1718.236
133.094, 453.244
133.576, 486.785
134.058, 638.218
134.540, 223.717
135.022, 7.204
135.504, 82.894
135.986, 101.605
136.469, 60.861
136.951, 33.728
137.433, 169.650
137.915, 343.244
138.397, 586.945
138.879, 870.800
139.361, 460.503
139.844, 4.893
140.326, 505.724
140.808, 1051.477
141.290, 1583.282
141.772, 2086.285
142.254, 2621.171
142.736, 3206.420
143.218, 3860.665
143.700, 4533.499
144.182, 5230.275
144.665, 5948.493
145.147, 6705.273
145.629, 7481.380
146.111, 8307.612
146.593, 9197.998
147.075, 10266.475
147.557, 11240.536
148.040, 12127.358
148.522, 12921.687
149.004, 13522.787
149.486, 14012.789
149.968, 14266.098
150.450, 14187.833
150.932, 13704.128
151.414, 12964.617
151.896, 11897.815
152.378, 10392.151
152.861, 9105.389
153.343, 8091.051
153.825, 7348.853
154.307, 6850.276
154.789, 6641.337
155.271, 6588.495
155.753, 6667.031
156.235, 6916.818
156.718, 7201.677
157.200, 7570.406
157.682, 7917.119
158.164, 8087.064
158.646, 8065.886
159.128, 7870.125
159.610, 7494.563
160.092, 6834.907
160.574, 6129.514
161.057, 5391.817
161.539, 4640.215
162.021, 3992.154
162.503, 3457.370
162.985, 3060.382
163.467, 2821.731
163.949, 2716.427
164.431, 2797.943
164.913, 3096.029
165.396, 3609.741
165.878, 4304.425
166.360, 5147.204
166.842, 6163.469
167.324, 7385.792
167.806, 8851.245
168.288, 10518.281
168.770, 12369.445
169.253, 14418.045
169.735, 16601.869
170.217, 18902.662
170.699, 21309.475
171.181, 23799.652
171.663, 26374.670
172.145, 29002.889
172.627, 31673.346
173.109, 34356.246
173.592, 37120.016
174.074, 40100.840
174.556, 43222.723
175.038, 46319.914
175.520, 49326.590
176.002, 52252.691
176.484, 55072.680
176.966, 57965.418
177.449, 60579.492
177.931, 62915.020
178.413, 64857.289
178.895, 65310.348
179.377, 63193.129
179.859, 58913.688
180.341, 53380.828
180.823, 46161.406
181.305, 38270.379
181.788, 31425.361
182.270, 25593.141
182.752, 20662.799
183.234, 16754.029
183.716, 13737.468
184.198, 11253.312
184.680, 9232.289
185.162, 7640.674
185.645, 6297.867
186.127, 5226.250
186.609, 4345.886
187.091, 3603.935
187.573, 2997.956
188.055, 2481.274
188.537, 2065.220
189.019, 1733.416
189.501, 1402.206
189.984, 1060.252
190.466, 742.056
190.948, 516.869
191.430, 351.790
191.912, 194.386
192.394, 56.699
192.876, 64.977
193.358, 177.966
193.840, 279.682
194.323, 325.743
194.805, 237.075
195.287, 162.449
195.769, 113.179
196.251, 100.860
196.733, 131.163
197.215, 155.470
197.697, 167.202
198.180, 191.787
198.662, 237.211
199.144, 304.755
199.626, 388.799
200.108, 437.109
200.590, 302.517
201.072, 182.690
201.554, 86.235
202.036, 11.107
202.519, 55.763
203.001, 112.024
203.483, 163.544
203.965, 224.719
204.447, 303.953
204.929, 344.477
205.411, 312.846
205.893, 211.358
206.376, 154.293
206.858, 138.112
207.340, 172.357
207.822, 273.970
208.304, 451.698
208.786, 674.061
209.268, 937.887
209.750, 1241.212
210.232, 1569.440
210.715, 1912.290
211.197, 2289.932
211.679, 2733.874
212.161, 3247.594
212.643, 3822.110
213.125, 4457.246
213.607, 5164.108
214.089, 5916.666
214.572, 6733.865
215.054, 7582.387
215.536, 8399.943
216.018, 9165.195
216.500, 9954.220
216.982, 10822.317
217.464, 11791.671
217.946, 12721.376
218.428, 13582.420
218.911, 14402.765
219.393, 15248.413
219.875, 16147.225
220.357, 17031.277
220.839, 17869.174
221.321, 18688.756
221.803, 19387.828
222.285, 19978.576
222.768, 20454.205
223.250, 20766.961
223.732, 20937.877
224.214, 20921.887
224.696, 20670.719
225.178, 20144.154
225.660, 19469.176
226.142, 18600.764
226.624, 17564.695
227.107, 16664.098
227.589, 15891.210
228.071, 15261.977
228.553, 14791.321
229.035, 14447.558
229.517, 14320.762
229.999, 14451.644
230.481, 14836.280
230.964, 15283.900
231.446, 15785.067
231.928, 16358.040
232.410, 17012.627
232.892, 17745.869
233.374, 18568.514
233.856, 19484.709
234.338, 20501.621
234.820, 21528.777
235.303, 22590.102
235.785, 23653.447
236.267, 24692.768
236.749, 25717.619
237.231, 26707.311
237.713, 27696.135
238.195, 28713.084
238.677, 29491.041
239.160, 30055.744
239.642, 30362.701
240.124, 30362.984
240.606, 30077.113
241.088, 29446.141
241.570, 28412.006
242.052, 26918.234
242.534, 25319.715
243.016, 23542.184
243.499, 21708.320
243.981, 19982.514
244.463, 18340.857
244.945, 16843.285
245.427, 15497.735
245.909, 14310.843
246.391, 13299.211
246.873, 12488.250
247.355, 11833.675
247.838, 11276.610
248.320, 10824.552
248.802, 10449.869
249.284, 10154.103
249.766, 9963.562
250.248, 9773.561
250.730, 9613.032
251.212, 9432.363
251.695, 9141.076
252.177, 8720.143
252.659, 8236.993
253.141, 7710.382
253.623, 7145.423
254.105, 6524.502
254.587, 5804.768
255.069, 5044.889
255.551, 4376.171
256.034, 3809.886
256.516, 3304.271
256.998, 2843.305
257.480, 2432.055
257.962, 2056.033
258.444, 1718.695
258.926, 1423.832
259.408, 1174.870
259.891, 975.789
260.373, 817.209
260.855, 695.169
261.337, 613.083
261.819, 556.908
262.301, 523.282
262.783, 501.593
263.265, 465.279
263.747, 413.326
264.229, 351.765
264.712, 282.097
265.194, 205.003
265.676, 121.414
266.158, 24.614
266.640, 74.930
267.122, 143.497
267.604, 171.715
268.086, 183.088
268.569, 185.056
269.051, 163.205
269.533, 99.808
270.015, 12.144
270.497, 87.488
270.979, 183.782
271.461, 281.415
271.943, 356.914
272.426, 387.367
272.908, 364.459
273.390, 375.568
273.872, 446.018
274.354, 540.916
274.836, 571.747
275.318, 526.310
275.800, 467.086
276.282, 431.799
276.765, 424.092
277.247, 405.286
277.729, 373.537
278.211, 329.657
278.693, 268.280
279.175, 184.517
279.657, 112.102
280.139, 86.965
280.621, 111.537
281.104, 85.540
281.586, 9.800
282.068, 22.765
282.550, 131.231
283.032, 222.058
283.514, 302.602
283.996, 374.686
284.478, 438.959
284.961, 502.259
285.443, 563.847
285.925, 628.169
286.407, 702.762
286.889, 788.429
287.371, 878.897
287.853, 961.140
288.335, 1040.527
288.818, 1162.521
289.300, 1342.019
289.782, 1539.669
290.264, 1665.167
290.746, 1724.214
291.228, 1810.985
291.710, 2011.390
292.192, 2290.263
292.674, 2513.878
293.156, 2657.790
293.639, 2776.549
294.121, 2943.590
294.603, 3155.304
295.085, 3393.418
295.567, 3652.803
296.049, 3930.131
296.531, 4222.737
297.013, 4531.409
297.496, 4861.271
297.978, 5224.489
298.460, 5616.688
298.942, 6026.010
299.424, 6442.409
299.906, 6870.656
300.388, 7339.014
300.870, 7852.854
301.353, 8368.848
301.835, 8798.980
302.317, 9176.005
302.799, 9632.409
303.281, 10485.681
303.763, 11359.211
304.245, 11676.796
304.727, 11331.813
305.209, 10789.315
305.691, 10422.466
306.174, 10172.181
306.656, 9910.014
307.138, 9578.281
307.620, 9201.717
308.102, 8806.227
308.584, 8392.834
309.066, 7952.698
309.548, 7478.224
310.031, 6972.209
310.513, 6430.286
310.995, 5790.999
311.477, 5151.488
311.959, 4587.800
312.441, 4110.671
312.923, 3649.126
313.405, 3166.573
313.888, 2676.850
314.370, 2206.417
314.852, 1736.493
315.334, 1301.276
315.816, 914.678
316.298, 577.269
316.780, 291.261
317.262, 84.603
317.744, 80.977
318.227, 241.889
318.709, 420.553
319.191, 486.780
319.673, 352.867
320.155, 239.150
320.637, 153.633
321.119, 101.613
321.601, 76.449
322.083, 72.425
322.566, 108.974
323.048, 142.775
323.530, 151.747
324.012, 138.563
324.494, 160.238
324.976, 245.837
325.458, 352.757
325.940, 453.278
326.422, 515.721
326.905, 600.725
327.387, 715.698
327.869, 715.057
328.351, 602.169
328.833, 479.614
329.315, 350.139
329.797, 214.080
330.280, 86.618
330.762, 74.241
331.244, 274.865
331.726, 506.961
332.208, 747.771
332.690, 996.669
333.172, 1269.833
333.654, 1580.097
334.136, 1947.592
334.618, 2302.137
335.101, 2618.580
335.583, 2940.018
336.065, 3378.610
336.547, 3983.689
337.029, 4613.615
337.511, 5156.069
337.993, 5542.033
338.475, 6181.986
338.958, 7141.762
339.440, 8283.248
339.922, 9395.792
340.404, 10527.510
340.886, 11446.667
341.368, 11973.157
341.850, 12094.877
342.332, 12411.235
342.815, 12945.696
343.297, 13600.091
343.779, 14244.197
344.261, 14885.111
344.743, 15514.975
345.225, 16182.182
345.707, 16847.199
346.189, 17343.957
346.671, 17655.125
347.154, 17860.580
347.636, 18042.213
348.118, 18191.129
348.600, 18270.951
349.082, 18279.453
349.564, 18203.840
350.046, 18001.514
350.528, 17671.426
351.010, 17284.787
351.493, 16879.336
351.975, 16463.424
352.457, 16048.312
352.939, 15629.941
353.421, 15225.629
353.903, 14848.885
354.385, 14502.172
354.867, 14197.151
355.349, 13933.501
355.832, 13721.063
356.314, 13565.435
356.796, 13446.338
357.278, 13426.032
357.760, 13567.752
358.242, 13849.346
358.724, 14206.525
359.207, 14604.975
359.689, 15067.862
360.171, 15618.354
360.653, 16275.505
361.135, 16978.033
361.617, 17664.914
362.099, 18383.480
362.581, 19210.094
363.063, 20242.311
363.546, 21334.777
364.028, 22421.346
364.510, 23485.301
364.992, 24581.572
365.474, 25731.576
365.956, 26919.152
366.438, 28125.010
366.920, 29337.959
367.402, 30590.221
367.885, 31918.973
368.367, 33347.434
368.849, 34698.293
369.331, 35949.906
369.813, 37125.805
370.295, 38247.871
370.777, 39345.473
371.259, 40332.715
371.741, 41220.691
372.224, 42002.992
372.706, 42613.250
373.188, 43042.145
373.670, 43298.395
374.152, 43386.984
374.634, 43310.988
375.116, 43043.410
375.598, 42560.863
376.081, 41879.074
376.563, 41035.820
377.045, 40025.785
377.527, 38899.570
378.009, 37629.730
378.491, 36230.855
378.973, 34835.707
379.455, 33473.777
379.938, 32098.830
380.420, 30650.166
380.902, 29117.643
381.384, 27590.609
381.866, 26092.469
382.348, 24624.193
382.830, 23153.914
383.312, 21681.631
383.794, 20232.771
384.276, 18858.758
384.759, 17541.871
385.241, 16266.601
385.723, 14989.102
386.205, 13783.210
386.687, 12772.566
387.169, 11953.034
387.651, 11205.628
388.134, 10486.008
388.616, 9772.459
389.098, 9017.145
389.580, 8146.880
390.062, 7313.692
390.544, 6659.418
391.026, 6149.460
391.508, 5692.063
391.990, 5231.662
392.473, 4812.248
392.955, 4469.239
393.437, 4236.668
393.919, 4029.619
394.401, 3796.257
394.883, 3569.614
395.365, 3412.222
395.847, 3393.803
396.329, 3403.538
396.812, 3397.863
397.294, 3366.826
397.776, 3344.054
398.258, 3301.102
398.740, 3283.434
399.222, 3341.189
399.704, 3530.603
400.186, 3727.998
400.668, 3913.591
401.151, 4085.958
401.633, 4257.623
402.115, 4418.982
402.597, 4594.688
403.079, 4799.067
403.561, 5019.483
404.043, 5302.976
404.525, 5663.035
405.008, 6086.221
405.490, 6513.412
405.972, 6929.708
406.454, 7401.939
406.936, 7981.342
407.418, 8674.024
407.900, 9389.644
408.382, 10126.537
408.865, 10888.106
409.347, 11666.060
409.829, 12450.526
410.311, 13309.972
410.793, 14285.923
411.275, 15367.360
411.757, 16466.295
412.239, 17577.898
412.721, 18699.779
413.203, 19812.170
413.686, 20936.057
414.168, 22092.441
414.650, 23286.602
415.132, 24513.197
415.614, 25797.654
416.096, 27115.080
416.578, 28390.334
417.060, 29542.500
417.543, 30634.268
418.025, 31699.568
418.507, 32775.555
418.989, 33801.141
419.471, 34783.141
419.953, 35694.676
420.435, 36503.750
420.917, 37200.535
421.400, 37784.016
421.882, 38262.652
422.364, 38661.531
422.846, 38859.090
423.328, 38774.879
423.810, 38501.070
424.292, 38145.707
424.774, 37783.965
425.256, 37266.129
425.738, 36537.285
426.221, 35604.840
426.703, 34653.266
427.185, 33727.531
427.667, 32730.854
428.149, 31587.244
428.631, 30215.775
429.113, 28920.172
429.595, 27720.639
430.078, 26592.949
430.560, 25490.064
431.042, 24415.719
431.524, 23336.902
432.006, 22228.361
432.488, 21092.625
432.970, 20038.082
433.452, 19078.000
433.935, 18154.332
434.417, 17197.398
434.899, 16218.165
435.381, 15272.936
435.863, 14386.718
436.345, 13554.889
436.827, 12777.528
437.309, 12053.256
437.791, 11352.707
438.274, 10658.244
438.756, 9977.572
439.238, 9325.189
439.720, 8699.352
440.202, 8111.143
440.684, 7576.214
441.166, 7085.722
441.648, 6615.854
442.130, 6158.396
442.613, 5721.439
443.095, 5306.201
443.577, 4912.673
444.059, 4541.856
444.541, 4197.479
445.023, 3875.010
445.505, 3566.721
445.987, 3288.325
446.470, 3016.066
446.952, 2730.595
447.434, 2433.865
447.916, 2203.160
448.398, 2090.455
448.880, 1992.758
449.362, 1850.719
449.844, 1645.271
450.327, 1436.554
450.809, 1207.412
451.291, 986.041
451.773, 841.340
452.255, 796.143
452.737, 742.903
453.219, 630.279
453.701, 459.786
454.183, 310.344
454.665, 180.253
455.148, 67.288
455.630, 31.839
456.112, 117.635
456.594, 190.120
457.076, 250.028
457.558, 296.752
458.040, 321.429
458.522, 327.524
459.005, 340.033
459.487, 376.616
459.969, 428.180
460.451, 485.967
460.933, 485.939
461.415, 403.721
461.897, 333.099
462.379, 268.868
462.862, 202.136
463.344, 99.985
463.826, 20.498
464.308, 11.226
464.790, 73.568
465.272, 105.238
465.754, 37.576
466.236, 46.076
466.718, 87.982
467.201, 3.531
467.683, 22.970
468.165, 67.254
468.647, 219.122
469.129, 275.134
469.611, 173.632
470.093, 70.288
470.575, 24.529
471.057, 45.864
471.540, 56.362
472.022, 53.319
472.504, 46.141
472.986, 49.515
473.468, 64.838
473.950, 67.107
474.432, 46.717
474.914, 11.334
475.397, 22.439
475.879, 55.181
476.361, 82.803
476.843, 97.918
477.325, 108.196
477.807, 130.539
478.289, 170.393
478.771, 207.869
479.254, 174.243
479.736, 146.158
480.218, 90.018
480.700, 22.472
481.182, 158.134
481.664, 286.044
482.146, 408.396
482.628, 558.240
483.110, 753.375
483.592, 975.299
484.075, 1214.365
484.557, 1510.936
485.039, 1757.448
485.521, 1879.298
486.003, 1944.021
486.485, 2109.744
486.967, 2459.667
487.449, 2810.913
487.931, 3101.098
488.414, 3316.361
488.896, 3573.933
489.378, 3898.743
489.860, 4235.215
490.342, 4521.118
490.824, 4743.042
491.306, 5035.007
491.789, 5437.922
492.271, 5912.023
492.753, 6374.535
493.235, 6829.357
493.717, 7289.739
494.199, 7752.707
494.681, 8238.059
495.163, 8814.157
495.645, 9475.753
496.128, 10153.182
496.610, 10768.489
497.092, 11360.914
497.574, 11966.464
498.056, 12621.438
498.538, 13285.736
499.020, 13910.845
499.502, 14522.616
499.984, 15190.508
500.467, 16023.712
500.949, 16873.057
501.431, 17642.508
501.913, 18311.348
502.395, 18972.623
502.877, 19604.354
503.359, 20251.211
503.841, 20959.105
504.323, 21797.754
504.806, 22583.982
505.288, 23266.377
505.770, 23857.160
506.252, 24489.729
506.734, 25192.385
507.216, 25855.469
507.698, 26388.029
508.181, 26786.311
508.663, 27212.170
509.145, 27696.158
509.627, 28145.957
510.109, 28469.633
510.591, 28665.748
511.073, 28731.670
511.555, 28635.262
512.037, 28432.590
512.519, 28211.680
513.002, 27967.996
513.484, 27651.273
513.966, 27193.316
514.448, 26659.373
514.930, 26124.111
515.412, 25621.906
515.894, 25051.938
516.376, 24342.494
516.859, 23537.127
517.341, 22709.623
517.823, 21861.414
518.305, 20998.928
518.787, 20108.666
519.269, 19193.889
519.751, 18325.488
520.233, 17507.107
520.716, 16722.326
521.198, 15973.501
521.680, 15266.852
522.162, 14561.489
522.644, 13853.812
523.126, 13161.815
523.608, 12522.265
524.090, 11934.945
524.572, 11366.789
525.055, 10804.321
525.537, 10256.831
526.019, 9745.720
526.501, 9266.413
526.983, 8809.217
527.465, 8387.445
527.947, 7988.212
528.429, 7567.680
528.911, 7111.188
529.394, 6673.644
529.876, 6308.438
530.358, 5987.910
530.840, 5660.312
531.322, 5294.528
531.804, 4932.546
532.286, 4597.631
532.768, 4291.109
533.250, 3974.197
533.733, 3611.677
534.215, 3261.934
534.697, 2961.984
535.179, 2738.543
535.661, 2500.736
536.143, 2238.468
536.625, 1970.072
537.107, 1734.470
537.589, 1540.713
538.072, 1333.681
538.554, 1089.695
539.036, 829.927
539.518, 653.270
540.000, 560.817
540.482, 487.865
540.964, 397.532
541.446, 293.264
541.929, 174.506
542.411, 35.840
542.893, 80.584
543.375, 112.173
543.857, 97.819
544.339, 103.830
544.821, 173.883
545.303, 180.160
545.786, 119.053
546.268, 73.725
546.750, 52.234
547.232, 93.899
547.714, 130.371
548.196, 120.856
548.678, 38.662
549.160, 1.906
549.643, 28.715
550.125, 81.618
550.607, 107.834
551.089, 84.086
551.571, 96.634
552.053, 164.856
552.535, 232.121
553.017, 140.091
553.499, 57.546
553.982, 33.454
554.464, 140.695
554.946, 263.970
555.428, 398.489
555.910, 544.416
556.392, 717.196
556.874, 952.371
557.356, 1220.423
557.838, 1469.514
558.321, 1674.002
558.803, 1888.849
559.285, 2154.990
559.767, 2461.577
560.249, 2781.874
560.731, 3107.065
561.213, 3447.205
561.695, 3798.153
562.177, 4159.243
562.660, 4578.896
563.142, 5097.970
563.624, 5633.575
564.106, 6136.955
564.588, 6558.500
565.070, 7059.468
565.552, 7672.010
566.034, 8324.499
566.516, 8908.117
566.999, 9418.411
567.481, 9965.126
567.963, 10599.439
568.445, 11280.601
568.927, 11956.221
569.409, 12620.244
569.891, 13274.219
570.373, 13906.928
570.856, 14529.383
571.338, 15153.896
571.820, 15794.352
572.302, 16387.418
572.784, 16885.832
573.266, 17332.367
573.748, 17780.820
574.230, 18299.029
574.713, 18754.027
575.195, 19127.783
575.677, 19414.062
576.159, 19597.029
576.641, 19651.154
577.123, 19643.242
577.605, 19601.656
578.087, 19528.191
578.570, 19341.312
579.052, 19024.639
579.534, 18634.035
580.016, 18220.707
580.498, 17782.477
580.980, 17267.719
581.462, 16661.480
581.944, 16015.431
582.426, 15405.005
582.909, 14808.776
583.391, 14178.211
583.873, 13465.748
584.355, 12738.432
584.837, 12063.806
585.319, 11430.061
585.801, 10789.993
586.283, 10097.936
586.765, 9402.938
587.248, 8715.529
587.730, 8023.707
588.212, 7419.381
588.694, 6975.596
589.176, 6585.424
589.658, 6160.616
590.140, 5668.939
590.622, 5215.460
591.104, 4811.821
591.587, 4449.261
592.069, 4119.901
592.551, 3824.518
593.033, 3537.159
593.515, 3237.423
593.997, 2943.405
594.479, 2722.117
594.961, 2570.080
595.443, 2428.359
595.926, 2243.663
596.408, 2044.711
596.890, 1874.302
597.372, 1742.956
597.854, 1615.716
598.336, 1458.175
598.818, 1297.589
599.300, 1171.212
599.783, 1114.592
600.265, 1058.235
600.747, 985.531
601.229, 901.560
601.711, 806.752
602.193, 672.996
602.675, 569.699
603.157, 533.528
603.640, 566.663
604.122, 597.523
604.604, 625.601
605.086, 661.079
605.568, 705.827
606.050, 754.767
606.532, 810.280
607.014, 870.877
607.497, 941.296
607.979, 1026.927
608.461, 1128.508
608.943, 1247.854
609.425, 1381.303
609.907, 1530.581
610.389, 1708.000
610.871, 1914.146
611.353, 2122.467
611.836, 2303.374
612.318, 2500.538
612.800, 2733.160
613.282, 3001.515
613.764, 3289.647
614.246, 3599.178
614.728, 3926.517
615.210, 4261.779
615.692, 4599.420
616.175, 4987.872
616.657, 5432.010
617.139, 5930.542
617.621, 6493.866
618.103, 7114.983
618.585, 7760.714
619.067, 8420.452
619.549, 9099.399
620.031, 9810.515
620.514, 10549.930
620.996, 11317.612
621.478, 12080.836
621.960, 12887.811
622.442, 13785.659
622.924, 14777.917
623.406, 15765.839
623.888, 16668.980
624.370, 17606.670
624.853, 18658.311
625.335, 19888.301
625.817, 21089.324
626.299, 22254.881
626.781, 23385.543
627.263, 24471.273
627.745, 25506.371
628.227, 26600.270
628.710, 27795.979
629.192, 29058.191
629.674, 30351.027
630.156, 31666.594
630.638, 32925.617
631.120, 34151.078
631.602, 35272.059
632.084, 36224.910
632.567, 37010.809
633.049, 37643.000
633.531, 38187.445
634.013, 38551.430
634.495, 38674.508
634.977, 38574.211
635.459, 38167.289
635.941, 37411.762
636.424, 36386.977
636.906, 35162.637
637.388, 33730.027
637.870, 32152.803
638.352, 30385.473
638.834, 28537.361
639.316, 26736.381
639.798, 24980.037
640.280, 23346.861
640.763, 21893.381
641.245, 20553.637
641.727, 19217.846
642.209, 17900.459
642.691, 16710.352
643.173, 15729.274
643.655, 14876.315
644.137, 14116.729
644.619, 13455.209
645.102, 12810.621
645.584, 12144.824
646.066, 11496.558
646.548, 10882.770
647.030, 10326.854
647.512, 9764.360
647.994, 9188.016
648.476, 8610.655
648.958, 8036.384
649.441, 7465.986
649.923, 6940.852
650.405, 6498.167
650.887, 6099.756
651.369, 5663.861
651.851, 5199.490
652.333, 4749.771
652.815, 4340.564
653.297, 3951.949
653.780, 3564.182
654.262, 3177.029
654.744, 2817.706
655.226, 2525.051
655.708, 2250.385
656.190, 1957.580
656.672, 1595.959
657.154, 1313.375
657.636, 1135.549
658.119, 1012.757
658.601, 891.147
659.083, 770.877
659.565, 651.051
660.047, 533.813
660.529, 414.065
661.011, 277.976
661.494, 128.533
661.976, 13.756
662.458, 145.120
662.940, 177.690
663.422, 77.802
663.904, 1.775
664.386, 53.988
664.868, 58.579
665.350, 47.318
665.833, 39.140
666.315, 38.289
666.797, 22.349
667.279, 29.185
667.761, 74.305
668.243, 73.895
668.725, 0.492
669.207, 3.701
669.690, 85.714
670.172, 191.555
670.654, 195.806
671.136, 117.288
671.618, 79.889
672.100, 130.640
672.582, 194.349
673.064, 183.230
673.546, 179.276
674.029, 145.904
674.511, 146.725
674.993, 136.669
675.475, 76.974
675.957, 19.580
676.439, 72.716
676.921, 36.656
677.403, 11.873
677.885, 52.539
678.368, 85.580
678.850, 98.915
679.332, 85.465
679.814, 70.105
680.296, 76.827
680.778, 98.849
681.260, 93.796
681.742, 50.611
682.224, 22.247
682.707, 81.825
683.189, 185.932
683.671, 140.364
684.153, 123.553
684.635, 108.143
685.117, 64.224
685.599, 3.939
686.081, 51.208
686.563, 73.732
687.046, 125.537
687.528, 229.977
688.010, 370.914
688.492, 477.403
688.974, 538.565
689.456, 614.499
689.938, 734.899
690.420, 888.602
690.903, 1038.837
691.385, 1186.293
691.867, 1330.826
692.349, 1489.978
692.831, 1633.474
693.313, 1718.017
693.795, 1733.263
694.277, 1749.758
694.760, 1810.341
695.242, 1876.927
695.724, 1919.722
696.206, 1923.567
696.688, 1924.887
697.170, 1925.162
697.652, 1922.808
698.134, 1918.207
698.617, 1913.667
699.099, 1895.947
699.581, 1862.529
700.063, 1818.176
700.545, 1752.537
701.027, 1679.237
701.509, 1647.365
701.991, 1696.615
702.473, 1778.648
702.956, 1860.935
703.438, 1943.350
703.920, 2026.202
704.402, 2111.014
704.884, 2193.124
705.366, 2260.558
705.848, 2314.281
706.330, 2398.771
706.812, 2519.174
707.295, 2659.736
707.777, 2825.071
708.259, 3011.430
708.741, 3146.440
709.223, 3223.415
709.705, 3316.628
710.187, 3507.021
710.669, 3757.428
711.151, 3996.598
711.634, 4206.428
712.116, 4433.612
712.598, 4722.363
713.080, 5040.516
713.562, 5349.581
714.044, 5622.609
714.526, 5914.089
715.008, 6223.033
715.490, 6554.221
715.973, 6906.962
716.455, 7288.479
716.937, 7675.703
717.419, 8062.355
717.901, 8448.520
718.383, 8798.051
718.865, 9129.330
719.347, 9527.550
719.830, 10115.251
720.312, 10730.611
720.794, 11205.663
721.276, 11574.427
721.758, 11966.916
722.240, 12439.993
722.722, 12948.625
723.204, 13495.991
723.687, 14078.220
724.169, 14616.574
724.651, 15103.069
725.133, 15568.298
725.615, 16023.772
726.097, 16472.797
726.579, 16929.914
727.061, 17398.898
727.544, 17854.170
728.026, 18314.549
728.508, 18745.723
728.990, 19071.676
729.472, 19265.557
729.954, 19433.881
730.436, 19671.314
730.918, 19907.342
731.400, 20068.158
731.883, 20199.402
732.365, 20163.770
732.847, 19873.848
733.329, 19470.961
733.811, 19166.920
734.293, 19001.570
734.775, 18726.748
735.257, 18276.766
735.739, 17722.771
736.222, 17213.373
736.704, 16726.678
737.186, 16166.466
737.668, 15453.141
738.150, 14684.659
738.632, 13938.066
739.114, 13212.331
739.596, 12511.903
740.078, 11840.532
740.561, 11194.993
741.043, 10567.397
741.525, 9966.000
742.007, 9430.081
742.489, 8976.711
742.971, 8538.218
743.453, 8065.184
743.935, 7566.892
744.417, 7131.482
744.900, 6760.859
745.382, 6432.256
745.864, 6144.085
746.346, 5879.069
746.828, 5606.969
747.310, 5321.351
747.792, 5069.894
748.274, 4914.766
748.757, 4775.608
749.239, 4587.817
749.721, 4311.444
750.203, 4086.460
750.685, 3926.913
751.167, 3793.165
751.649, 3644.459
752.131, 3482.359
752.614, 3365.935
753.096, 3307.091
753.578, 3278.770
754.060, 3232.787
754.542, 3184.813
755.024, 3175.815
755.506, 3225.856
755.988, 3291.315
756.471, 3378.651
756.953, 3467.355
757.435, 3511.598
757.917, 3426.358
758.399, 3405.863
758.881, 3494.294
759.363, 3640.908
759.845, 3738.060
760.327, 3783.682
760.810, 3832.222
761.292, 3906.793
761.774, 3986.401
762.256, 4025.238
762.738, 4035.593
763.220, 4052.601
763.702, 4099.709
764.184, 4154.879
764.666, 4202.710
765.148, 4246.244
765.631, 4301.979
766.113, 4385.976
766.595, 4458.619
767.077, 4498.036
767.559, 4510.741
768.041, 4572.027
768.523, 4689.391
769.005, 4797.064
769.487, 4839.586
769.970, 4845.740
770.452, 4884.263
770.934, 4950.913
771.416, 5027.816
771.898, 5103.895
772.380, 5186.828
772.862, 5294.878
773.344, 5435.294
773.827, 5539.727
774.309, 5610.506
774.791, 5633.910
775.273, 5589.821
775.755, 5468.494
776.237, 5406.865
776.719, 5416.892
777.201, 5430.240
777.683, 5399.723
778.166, 5335.262
778.648, 5240.341
779.130, 5109.117
779.612, 5006.416
780.094, 5016.715
780.576, 5056.924
781.058, 5044.741
781.541, 4929.596
782.023, 4843.948
782.505, 4811.061
782.987, 4790.991
783.469, 4733.548
783.951, 4625.454
784.433, 4596.341
784.915, 4464.393
785.397, 4398.918
785.880, 4317.541
786.362, 4221.043
786.844, 4063.699
787.326, 3983.748
787.808, 3872.537
788.290, 3775.837
788.772, 3679.596
789.254, 3565.428
789.737, 3409.872
790.219, 3259.657
790.701, 3117.779
791.183, 2982.466
791.665, 2861.217
792.147, 2755.142
792.629, 2612.348
793.111, 2403.758
793.593, 2188.646
794.076, 2076.285
794.558, 2030.501
795.040, 1964.846
795.522, 1759.494
796.004, 1627.630
796.486, 1524.305
796.968, 1465.770
797.450, 1396.429
797.932, 1317.058
798.415, 1196.579
798.897, 1129.258
799.379, 1040.501
799.861, 950.778
800.343, 878.950
800.825, 749.202
801.307, 609.871
801.789, 482.804
802.271, 403.906
802.754, 362.247
803.236, 325.026
803.718, 275.923
804.200, 230.028
804.682, 193.962
805.164, 166.434
805.646, 140.703
806.128, 123.944
806.610, 91.623
807.093, 25.003
807.575, 56.871
808.057, 80.006
808.539, 49.220
809.021, 15.091
809.503, 10.989
809.985, 16.392
810.468, 27.782
810.950, 108.981
811.432, 166.129
811.914, 117.403
812.396, 99.490
812.878, 138.222
813.360, 100.303
813.842, 81.048
814.324, 147.631
814.807, 89.331
815.289, 62.171
815.771, 64.994
816.253, 69.736
816.735, 74.657
817.217, 68.303
817.699, 23.141
818.181, 18.583
818.664, 13.401
819.146, 33.156
819.628, 59.309
820.110, 28.011
820.592, 4.238
821.074, 17.040
821.556, 59.469
822.038, 56.588
822.520, 3.383
823.003, 47.788
823.485, 64.844
823.967, 61.158
824.449, 60.423
824.931, 62.458
825.413, 62.928
825.895, 73.269
826.377, 70.787
826.859, 35.793
827.342, 31.493
827.824, 82.864
828.306, 64.554
828.788, 36.387
829.270, 0.046
829.752, 41.326
830.234, 74.802
830.716, 99.848
831.198, 107.345
831.681, 87.936
832.163, 51.052
832.645, 10.813
833.127, 46.529
833.609, 3.081
834.091, 58.258
834.573, 8.408
835.055, 18.924
835.537, 13.657
836.020, 13.231
836.502, 17.893
836.984, 25.672
837.466, 40.931
837.948, 56.919
838.430, 43.661
838.912, 8.198
839.394, 2.921
839.877, 52.032
840.359, 128.293
840.841, 213.565
841.323, 303.829
841.805, 343.467
842.287, 301.734
842.769, 257.588
843.251, 237.388
843.734, 239.120
844.216, 258.300
844.698, 294.010
845.180, 326.186
845.662, 337.717
846.144, 341.637
846.626, 348.374
847.108, 359.220
847.591, 380.318
848.073, 439.513
848.555, 482.381
849.037, 483.001
849.519, 448.543
850.001, 419.792
850.483, 395.931
850.965, 385.991
851.447, 409.303
851.930, 441.304
852.412, 408.041
852.894, 325.351
853.376, 265.904
853.858, 298.206
854.340, 338.535
854.822, 330.077
855.304, 284.003
855.786, 269.007
856.269, 304.218
856.751, 341.602
857.233, 367.755
857.715, 385.152
858.197, 390.076
858.679, 385.674
859.161, 413.795
859.643, 522.556
860.125, 644.249
860.608, 714.058
861.090, 739.387
861.572, 741.762
862.054, 697.815
862.536, 667.450
863.018, 682.055
863.500, 713.753
863.982, 668.461
864.464, 528.723
864.947, 461.736
865.429, 541.507
865.911, 670.863
866.393, 699.225
866.875, 655.528
867.357, 611.274
867.839, 603.152
868.321, 591.266
868.804, 565.047
869.286, 520.171
869.768, 446.364
870.250, 313.576
870.732, 240.459
871.214, 269.276
871.696, 334.532
872.178, 304.546
872.661, 214.263
873.143, 186.618
873.625, 286.839
874.107, 385.245
874.589, 369.809
875.071, 301.071
875.553, 261.269
876.035, 280.254
876.518, 310.155
877.000, 364.402
877.482, 409.306
877.964, 384.721
878.446, 297.880
878.928, 274.278
879.410, 342.081
879.892, 423.124
880.374, 437.569
880.857, 418.871
881.339, 410.778
881.821, 422.701
882.303, 451.612
882.785, 547.535
883.267, 616.066
883.749, 560.107
884.231, 351.209
884.713, 268.824
885.196, 330.529
885.678, 427.638
886.160, 470.829
886.642, 482.019
887.124, 489.990
887.606, 499.300
888.088, 524.985
888.570, 597.460
889.052, 668.439
889.534, 706.329
890.017, 706.186
890.499, 740.395
890.981, 818.328
891.463, 887.945
891.945, 883.846
892.427, 852.709
892.909, 894.248
893.391, 1002.052
893.874, 1131.050
894.356, 1304.263
894.838, 1443.419
895.320, 1482.380
895.802, 1428.611
896.284, 1431.174
896.766, 1510.628
897.248, 1592.599
897.731, 1662.428
898.213, 1714.943
898.695, 1728.194
899.177, 1710.613
899.659, 1682.850
900.141, 1661.683
900.623, 1626.062
901.105, 1542.450
901.588, 1435.725
902.070, 1373.986
902.552, 1385.334
903.034, 1404.289
903.516, 1423.607
903.998, 1437.459
904.480, 1425.369
904.962, 1393.670
905.444, 1382.740
905.927, 1414.968
906.409, 1439.521
906.891, 1393.750
907.373, 1321.477
907.855, 1279.133
908.337, 1306.154
908.819, 1336.038
909.301, 1383.150
909.783, 1417.113
910.266, 1381.687
910.748, 1282.793
911.230, 1208.272
911.712, 1171.624
912.194, 1142.360
912.676, 1093.531
913.158, 1034.560
913.640, 977.204
914.122, 924.753
914.605, 863.893
915.087, 774.483
915.569, 699.503
916.051, 672.401
916.533, 695.441
917.015, 690.066
917.497, 656.866
917.979, 605.154
918.461, 514.767
918.944, 425.730
919.426, 392.142
919.908, 410.850
920.390, 423.849
920.872, 403.606
921.354, 385.557
921.836, 372.570
922.318, 369.676
922.801, 419.481
923.283, 522.743
923.765, 593.786
924.247, 574.474
924.729, 526.078
925.211, 514.429
925.693, 533.182
926.175, 568.590
926.657, 667.856
927.140, 715.763
927.622, 668.233
928.104, 574.723
928.586, 519.817
929.068, 506.379
929.550, 490.994
930.032, 464.922
930.515, 438.404
930.997, 442.779
931.479, 448.775
931.961, 398.306
932.443, 243.967
932.925, 133.409
933.407, 126.886
933.889, 153.263
934.371, 164.504
934.854, 156.829
935.336, 141.398
935.818, 117.179
936.300, 110.680
936.782, 167.630
937.264, 239.835
937.746, 272.172
938.228, 260.476
938.710, 220.417
939.193, 89.606
939.675, 15.148
940.157, 79.726
940.639, 251.696
941.121, 309.284
941.603, 251.214
942.085, 190.484
942.567, 194.046
943.049, 211.991
943.532, 183.756
944.014, 121.289
944.496, 53.066
944.978, 43.154
945.460, 10.991
945.942, 24.780
946.424, 7.672
946.906, 40.825
947.388, 30.640
947.871, 13.871
948.353, 4.322
948.835, 18.988
949.317, 22.711
949.799, 20.904
950.281, 21.209
950.763, 28.261
951.245, 28.578
951.728, 17.392
952.210, 4.290
952.692, 3.175
953.174, 4.634
953.656, 11.729
954.138, 24.197
954.620, 26.080
955.102, 1.825
955.584, 35.978
956.067, 10.371
956.549, 58.047
957.031, 65.362
957.513, 1.137
957.995, 4.541
958.477, 52.522
958.959, 92.030
959.442, 79.318
959.924, 23.971
960.406, 4.716
960.888, 43.864
961.370, 92.003
961.852, 58.140
962.334, 13.678
962.816, 15.344
963.298, 10.468
963.781, 8.228
964.263, 10.211
964.745, 30.419
965.227, 14.132
965.709, 98.983
966.191, 98.940
966.673, 5.994
967.155, 37.215
967.638, 13.584
968.120, 9.841
968.602, 36.194
969.084, 62.526
969.566, 67.568
970.048, 43.168
970.530, 22.005
971.012, 28.822
971.494, 47.697
971.977, 21.645
972.459, 16.223
972.941, 10.178
973.423, 21.269
973.905, 90.950
974.387, 79.037
974.869, 21.455
975.351, 6.929
975.833, 3.014
976.316, 18.781
976.798, 60.546
977.280, 105.063
977.762, 117.874
978.244, 119.473
978.726, 152.681
979.208, 240.865
979.690, 303.854
980.172, 310.995
980.655, 283.096
981.137, 223.627
981.619, 129.829
982.101, 68.543
982.583, 40.858
983.065, 34.430
983.547, 58.607
984.029, 87.999
984.511, 96.132
984.994, 83.959
985.476, 58.931
985.958, 11.497
986.440, 13.044
986.922, 11.948
987.404, 54.908
987.886, 59.568
988.369, 9.921
988.851, 10.901
989.333, 1.585
989.815, 17.204
990.297, 11.880
990.779, 29.316
991.261, 58.975
991.743, 69.738
992.225, 49.080
992.708, 10.775
993.190, 55.830
993.672, 96.464
994.154, 110.373
994.636, 73.206
995.118, 7.636
995.600, 25.909
996.082, 39.515
996.565, 135.481
997.047, 158.261
997.529, 127.129
998.011, 124.475
998.493, 157.995
998.975, 172.975
999.457, 144.389
999.939, 107.660
1000.421, 127.249
1000.904, 174.301
1001.386, 191.056
1001.868, 135.720
1002.350, 101.276
1002.832, 124.833
1003.314, 161.215
1003.796, 173.203
1004.278, 162.134
1004.760, 154.173
1005.243, 150.344
1005.725, 142.223
1006.207, 108.909
1006.689, 71.887
1007.171, 57.151
1007.653, 64.729
1008.135, 79.668
1008.617, 108.322
1009.099, 127.083
1009.582, 127.581
1010.064, 118.746
1010.546, 125.534
1011.028, 139.813
1011.510, 128.238
1011.992, 57.233
1012.474, 12.427
1012.956, 79.445
1013.438, 171.945
1013.921, 200.341
1014.403, 133.047
1014.885, 106.297
1015.367, 134.049
1015.849, 159.222
1016.331, 120.149
1016.813, 56.256
1017.295, 23.236
1017.778, 22.187
1018.260, 40.560
1018.742, 100.247
1019.224, 150.616
1019.706, 185.756
1020.188, 198.523
1020.670, 149.654
1021.152, 48.844
1021.634, 3.367
1022.117, 28.580
1022.599, 84.871
1023.081, 117.626
1023.563, 144.798
1024.045, 194.221
1024.527, 290.089
1025.009, 328.792
1025.491, 294.399
1025.974, 252.430
1026.456, 260.131
1026.938, 290.557
1027.420, 257.523
1027.902, 175.503
1028.384, 128.031
1028.866, 216.353
1029.348, 282.385
1029.830, 238.917
1030.313, 140.950
1030.795, 103.842
1031.277, 134.739
1031.759, 163.572
1032.241, 177.699
1032.723, 188.036
1033.205, 208.947
1033.687, 231.820
1034.170, 240.025
1034.652, 220.846
1035.134, 233.516
1035.616, 304.364
1036.098, 359.369
1036.580, 343.287
1037.062, 279.820
1037.544, 257.879
1038.026, 273.915
1038.509, 316.602
1038.991, 429.401
1039.473, 510.908
1039.955, 494.758
1040.437, 420.742
1040.919, 358.771
1041.401, 312.477
1041.883, 256.272
1042.365, 185.385
1042.848, 124.585
1043.330, 110.640
1043.812, 116.988
1044.294, 114.243
1044.776, 100.713
1045.258, 87.244
1045.740, 68.247
1046.222, 57.603
1046.705, 58.354
1047.187, 72.520
1047.669, 112.190
1048.151, 163.283
1048.633, 171.947
1049.115, 73.001
1049.597, 0.065
1050.079, 56.777
1050.562, 168.168
1051.044, 241.023
1051.526, 267.401
1052.008, 273.828
1052.490, 257.423
1052.972, 240.770
1053.454, 247.795
1053.936, 266.986
1054.418, 271.948
1054.901, 263.863
1055.383, 265.576
1055.865, 286.957
1056.347, 310.880
1056.829, 340.133
1057.311, 365.354
1057.793, 364.727
1058.275, 343.863
1058.757, 324.757
1059.240, 314.805
1059.722, 301.932
1060.204, 282.123
1060.686, 254.269
1061.168, 234.809
1061.650, 227.807
1062.132, 165.831
1062.614, 42.885
1063.097, 0.151
1063.579, 10.158
1064.061, 6.329
1064.543, 15.567
1065.025, 2.817
1065.507, 7.955
1065.989, 70.297
1066.471, 104.880
1066.953, 100.810
1067.436, 78.588
1067.918, 50.019
1068.400, 18.507
1068.882, 4.970
1069.364, 19.445
1069.846, 14.581
1070.328, 35.055
1070.810, 84.612
1071.292, 117.604
1071.775, 130.133
1072.257, 86.971
1072.739, 13.713
1073.221, 4.115
1073.703, 36.670
1074.185, 135.326
1074.667, 122.199
1075.149, 58.341
1075.631, 20.346
1076.114, 34.941
1076.596, 32.567
1077.078, 8.224
1077.560, 14.371
1078.042, 9.160
1078.524, 7.841
1079.006, 7.288
1079.488, 5.109
1079.971, 16.224
1080.453, 13.610
1080.935, 17.121
1081.417, 15.015
1081.899, 8.023
1082.381, 18.218
1082.863, 35.221
1083.345, 68.194
1083.828, 55.237
1084.310, 37.932
1084.792, 35.423
1085.274, 47.631
1085.756, 83.363
1086.238, 136.888
1086.720, 168.317
1087.202, 175.773
1087.684, 170.272
1088.167, 149.792
1088.649, 131.011
1089.131, 151.456
1089.613, 183.208
1090.095, 179.262
1090.577, 96.853
1091.059, 73.107
1091.541, 144.247
1092.023, 221.939
1092.506, 240.358
1092.988, 211.582
1093.470, 174.293
1093.952, 134.218
1094.434, 113.026
1094.916, 130.673
1095.398, 155.551
1095.880, 173.623
1096.363, 194.042
1096.845, 235.919
1097.327, 297.564
1097.809, 338.561
1098.291, 354.608
1098.773, 358.085
1099.255, 358.101
1099.737, 351.198
1100.219, 329.264
1100.702, 296.193
1101.184, 278.094
1101.666, 276.247
1102.148, 289.411
1102.630, 324.705
1103.112, 357.018
1103.594, 339.167
1104.076, 299.801
1104.558, 278.709
1105.041, 283.489
1105.523, 311.498
1106.005, 386.705
1106.487, 429.654
1106.969, 372.733
1107.451, 258.521
1107.933, 226.244
1108.415, 252.452
1108.898, 260.996
1109.380, 199.325
1109.862, 145.771
1110.344, 123.076
1110.826, 112.516
1111.308, 95.154
1111.790, 73.067
1112.272, 42.003
1112.755, 2.954
1113.237, 17.056
1113.719, 13.563
1114.201, 56.558
1114.683, 93.560
1115.165, 121.512
1115.647, 138.889
1116.129, 147.735
1116.611, 110.121
1117.094, 1.080
1117.576, 27.878
1118.058, 47.239
1118.540, 220.162
1119.022, 246.956
1119.504, 86.286
1119.986, 2.045
1120.468, 5.785
1120.950, 44.197
1121.433, 105.365
1121.915, 167.922
1122.397, 184.698
1122.879, 167.028
1123.361, 134.908
1123.843, 89.152
1124.325, 40.357
1124.807, 25.016
1125.290, 17.368
1125.772, 11.354
1126.254, 17.574
1126.736, 26.381
1127.218, 67.470
1127.700, 113.743
1128.182, 170.710
1128.664, 227.314
1129.146, 250.011
1129.629, 288.564
1130.111, 262.964
1130.593, 301.665
1131.075, 323.359
1131.557, 332.178
1132.039, 280.961
1132.521, 307.577
1133.003, 302.829
1133.485, 313.335
1133.968, 344.095
1134.450, 343.687
1134.932, 310.030
1135.414, 280.319
1135.896, 266.209
1136.378, 241.747
1136.860, 133.391
1137.342, 25.657
1137.825, 24.815
1138.307, 158.189
1138.789, 243.101
1139.271, 267.542
1139.753, 265.075
1140.235, 242.201
1140.717, 208.337
1141.199, 148.306
1141.682, 90.853
1142.164, 94.472
1142.646, 223.329
1143.128, 280.089
1143.610, 224.561
1144.092, 152.428
1144.574, 126.732
1145.056, 132.069
1145.538, 140.091
1146.021, 149.304
1146.503, 144.108
1146.985, 115.989
1147.467, 81.629
1147.949, 40.136
1148.431, 3.701
1148.913, 8.080
1149.395, 45.421
1149.877, 28.196
1150.360, 10.679
1150.842, 72.527
1151.324, 114.468
1151.806, 145.997
1152.288, 170.648
1152.770, 195.824
1153.252, 253.270
1153.734, 335.566
1154.217, 318.104
1154.699, 174.370
1155.181, 73.242
1155.663, 208.630
1156.145, 369.516
1156.627, 389.796
1157.109, 307.582
1157.591, 278.341
1158.073, 305.449
1158.556, 326.550
1159.038, 330.804
1159.520, 303.903
1160.002, 182.374
1160.484, 55.139
1160.966, 27.957
1161.448, 113.070
1161.930, 148.176
1162.412, 128.918
1162.895, 97.471
1163.377, 63.837
1163.859, 34.915
1164.341, 21.493
1164.823, 20.573
1165.305, 27.782
1165.787, 57.618
1166.269, 51.572
1166.752, 2.222
1167.234, 19.792
1167.716, 1.018
1168.198, 4.617
1168.680, 6.740
1169.162, 70.900
1169.644, 114.740
1170.126, 52.953
1170.609, 53.728
1171.091, 135.490
1171.573, 239.816
1172.055, 333.405
1172.537, 394.406
1173.019, 345.869
1173.501, 215.552
1173.983, 146.076
1174.465, 256.027
1174.948, 326.784
1175.430, 314.941
1175.912, 278.596
1176.394, 284.222
1176.876, 311.505
1177.358, 302.025
1177.840, 253.253
1178.322, 233.516
1178.804, 320.020
1179.287, 371.137
1179.769, 336.937
1180.251, 263.442
1180.733, 235.924
1181.215, 244.333
1181.697, 261.111
1182.179, 281.796
1182.661, 295.759
1183.144, 303.235
1183.626, 298.979
1184.108, 273.563
1184.590, 240.084
1185.072, 246.339
1185.554, 280.038
1186.036, 292.461
1186.518, 266.960
1187.000, 232.382
1187.483, 196.999
1187.965, 163.081
1188.447, 130.576
1188.929, 101.635
1189.411, 87.296
1189.893, 87.053
1190.375, 98.382
1190.857, 140.618
1191.339, 156.859
1191.822, 82.453
1192.304, 0.403
1192.786, 21.892
1193.268, 12.872
1193.750, 50.530
1194.232, 88.382
1194.714, 106.135
1195.196, 73.815
1195.678, 38.696
1196.161, 18.283
1196.643, 10.191
1197.125, 15.176
1197.607, 33.366
1198.089, 35.605
1198.571, 23.088
1199.053, 30.985
1199.535, 125.699
1200.018, 200.131
1200.500, 180.729
1200.982, 108.512
1201.464, 26.977
1201.946, 12.099
1202.428, 36.070
1202.910, 125.075
1203.392, 241.634
1203.875, 129.131
1204.357, 9.769
1204.839, 28.145
1205.321, 20.892
1205.803, 10.052
1206.285, 43.276
1206.767, 78.692
1207.249, 117.351
1207.731, 139.404
1208.214, 93.378
1208.696, 53.459
1209.178, 90.796
1209.660, 174.989
1210.142, 210.154
1210.624, 196.757
1211.106, 189.769
1211.588, 201.114
1212.070, 208.849
1212.553, 164.997
1213.035, 136.507
1213.517, 211.738
1213.999, 349.948
1214.481, 360.099
1214.963, 244.209
1215.445, 131.134
1215.927, 49.102
1216.410, 4.417
1216.892, 26.609
1217.374, 71.582
1217.856, 112.983
1218.338, 145.108
1218.820, 112.378
1219.302, 12.490
1219.784, 9.528
1220.266, 23.877
1220.749, 22.328
1221.231, 35.980
1221.713, 23.658
1222.195, 44.500
1222.677, 24.059
1223.159, 22.163
1223.641, 37.296
1224.123, 50.754
1224.605, 54.994
1225.088, 52.027
1225.570, 15.524
1226.052, 5.221
1226.534, 47.187
1227.016, 171.840
1227.498, 219.427
1227.980, 194.763
1228.462, 165.844
1228.945, 160.478
1229.427, 168.396
1229.909, 192.114
1230.391, 220.998
1230.873, 247.510
1231.355, 276.519
1231.837, 258.331
1232.319, 200.548
1232.802, 179.078
1233.284, 290.219
1233.766, 385.352
1234.248, 358.702
1234.730, 301.903
1235.212, 315.031
1235.694, 396.910
1236.176, 412.755
1236.658, 358.892
1237.141, 318.675
1237.623, 366.141
1238.105, 395.103
1238.587, 332.863
1239.069, 250.969
1239.551, 226.275
1240.033, 251.995
1240.515, 266.151
1240.997, 267.429
1241.480, 257.533
1241.962, 219.103
1242.444, 197.737
1242.926, 222.966
1243.408, 258.896
1243.890, 263.049
1244.372, 227.372
1244.854, 166.606
1245.337, 103.038
1245.819, 92.852
1246.301, 66.637
1246.783, 124.213
1247.265, 160.907
1247.747, 178.871
1248.229, 119.920
1248.711, 160.254
1249.193, 160.785
1249.676, 159.765
1250.158, 214.081
1250.640, 166.312
1251.122, 214.280
1251.604, 232.471
1252.086, 284.034
1252.568, 267.678
1253.050, 205.941
1253.532, 131.510
1254.015, 53.275
1254.497, 24.357
1254.979, 97.811
1255.461, 163.432
1255.943, 205.139
1256.425, 219.357
1256.907, 166.849
1257.389, 98.116
1257.872, 107.462
1258.354, 197.544
1258.836, 282.774
1259.318, 361.255
1259.800, 404.114
1260.282, 401.427
1260.764, 375.652
1261.246, 362.291
1261.729, 340.957
1262.211, 275.861
1262.693, 169.785
1263.175, 92.294
1263.657, 53.835
1264.139, 23.838
1264.621, 4.743
1265.103, 0.488
1265.585, 21.681
1266.068, 74.362
1266.550, 92.953
1267.032, 51.096
1267.514, 23.580
1267.996, 0.000
##END=



