##NAMES=Nifontovite
##RRUFFID=R060685
##IDEAL CHEMISTRY=Ca_3_[BO(OH)_2_]_6_&#183;2H_2_O
##LOCALITY=Fuka mine, Okayama Prefecture, Japan
##OWNER=RRUFF
##SOURCE=Michael Scott
##DESCRIPTION=Colorless prismatic crystal
##STATUS=The identification of this mineral has been confirmed by X-ray diffraction and chemical analysis
##URL=rruff.info/R060685
##MEASURED CHEMISTRY=Ca_3.00_[BO(OH)_2_]_6_Â·2H_2_O ; = darker phase. H_2_O assumed ideal from stoichiometry; B_2_O_3_ estimated by difference
115.738, 0.000
116.220, 245.013
116.702, 666.423
117.184, 1173.729
117.666, 1767.230
118.148, 2468.997
118.630, 3092.950
119.113, 3568.059
119.595, 3884.469
120.077, 4032.314
120.559, 3924.004
121.041, 3682.480
121.523, 3412.983
122.005, 3145.976
122.487, 2924.224
122.969, 2732.814
123.451, 2609.791
123.934, 2462.167
124.416, 2204.653
124.898, 1872.359
125.380, 1526.400
125.862, 1170.578
126.344, 824.318
126.826, 502.703
127.308, 204.091
127.791, 33.189
128.273, 161.185
128.755, 188.988
129.237, 155.457
129.719, 68.513
130.201, 65.616
130.683, 235.809
131.165, 450.388
131.648, 679.717
132.130, 877.104
132.612, 1042.012
133.094, 1192.957
133.576, 1347.503
134.058, 1502.380
134.540, 1633.117
135.022, 1734.362
135.504, 1817.915
135.986, 1910.049
136.469, 1999.039
136.951, 2073.667
137.433, 2128.631
137.915, 2176.320
138.397, 2131.771
138.879, 1950.636
139.361, 1626.012
139.844, 1318.054
140.326, 1023.835
140.808, 750.536
141.290, 510.280
141.772, 292.265
142.254, 128.172
142.736, 37.561
143.218, 43.548
143.700, 59.400
144.182, 77.648
144.665, 106.002
145.147, 173.317
145.629, 293.122
146.111, 440.978
146.593, 604.919
147.075, 849.575
147.557, 986.095
148.040, 975.924
148.522, 825.648
149.004, 672.242
149.486, 461.340
149.968, 277.554
150.450, 186.609
150.932, 141.110
151.414, 135.976
151.896, 121.272
152.378, 97.546
152.861, 37.114
153.343, 24.320
153.825, 7.473
154.307, 40.010
154.789, 45.982
155.271, 100.837
155.753, 109.790
156.235, 78.684
156.718, 22.875
157.200, 39.500
157.682, 116.066
158.164, 221.545
158.646, 399.303
159.128, 580.037
159.610, 728.764
160.092, 848.225
160.574, 916.852
161.057, 899.592
161.539, 813.137
162.021, 734.652
162.503, 687.729
162.985, 663.734
163.467, 655.500
163.949, 646.395
164.431, 664.215
164.913, 727.549
165.396, 835.691
165.878, 962.592
166.360, 1115.139
166.842, 1274.354
167.324, 1415.836
167.806, 1556.119
168.288, 1659.588
168.770, 1703.098
169.253, 1686.359
169.735, 1613.084
170.217, 1458.775
170.699, 1249.768
171.181, 1038.168
171.663, 827.402
172.145, 638.328
172.627, 466.045
173.109, 280.168
173.592, 202.469
174.074, 180.199
174.556, 146.748
175.038, 102.326
175.520, 12.076
176.002, 11.514
176.484, 57.922
176.966, 93.059
177.449, 52.514
177.931, 31.525
178.413, 25.525
178.895, 4.521
179.377, 64.490
179.859, 165.857
180.341, 261.711
180.823, 335.598
181.305, 399.596
181.788, 464.260
182.270, 529.955
182.752, 616.434
183.234, 753.303
183.716, 931.031
184.198, 1107.443
184.680, 1264.783
185.162, 1407.357
185.645, 1565.062
186.127, 1739.930
186.609, 1895.936
187.091, 1988.246
187.573, 2020.666
188.055, 2008.789
188.537, 1951.178
189.019, 1851.508
189.501, 1725.084
189.984, 1567.758
190.466, 1398.449
190.948, 1241.453
191.430, 1095.500
191.912, 975.389
192.394, 895.008
192.876, 852.748
193.358, 814.824
193.840, 770.729
194.323, 739.750
194.805, 778.025
195.287, 893.697
195.769, 1012.842
196.251, 1087.857
196.733, 1118.893
197.215, 1124.523
197.697, 1095.689
198.180, 1049.301
198.662, 1052.682
199.144, 1118.156
199.626, 1183.303
200.108, 1182.895
200.590, 1106.422
201.072, 1061.250
201.554, 1073.494
202.036, 1135.600
202.519, 1196.736
203.001, 1251.910
203.483, 1316.957
203.965, 1407.076
204.447, 1522.303
204.929, 1659.180
205.411, 1812.621
205.893, 1983.109
206.376, 2188.926
206.858, 2438.254
207.340, 2708.305
207.822, 2971.590
208.304, 3227.484
208.786, 3480.723
209.268, 3741.793
209.750, 4016.477
210.232, 4242.248
210.715, 4436.398
211.197, 4565.602
211.679, 4562.104
212.161, 4395.426
212.643, 4174.570
213.125, 3931.609
213.607, 3658.613
214.089, 3398.246
214.572, 3134.809
215.054, 2893.871
215.536, 2733.414
216.018, 2673.453
216.500, 2651.373
216.982, 2638.182
217.464, 2629.418
217.946, 2639.609
218.428, 2666.543
218.911, 2712.262
219.393, 2788.996
219.875, 2919.432
220.357, 3042.785
220.839, 3128.008
221.321, 3179.023
221.803, 3181.854
222.285, 3132.080
222.768, 3033.557
223.250, 2906.451
223.732, 2750.744
224.214, 2567.006
224.696, 2345.412
225.178, 2056.195
225.660, 1799.270
226.142, 1584.219
226.624, 1409.148
227.107, 1277.971
227.589, 1215.094
228.071, 1165.266
228.553, 1083.359
229.035, 943.285
229.517, 820.807
229.999, 730.646
230.481, 671.004
230.964, 605.270
231.446, 536.975
231.928, 458.822
232.410, 358.379
232.892, 202.746
233.374, 88.848
233.856, 48.701
234.338, 85.188
234.820, 92.943
235.303, 65.682
235.785, 20.775
236.267, 26.273
236.749, 86.443
237.231, 126.604
237.713, 134.922
238.195, 106.350
238.677, 87.613
239.160, 77.879
239.642, 78.252
240.124, 93.490
240.606, 141.395
241.088, 172.896
241.570, 171.184
242.052, 128.879
242.534, 95.344
243.016, 77.488
243.499, 64.094
243.981, 37.441
244.463, 14.363
244.945, 58.035
245.427, 78.229
245.909, 62.781
246.391, 73.439
246.873, 125.986
247.355, 194.305
247.838, 231.404
248.320, 215.203
248.802, 205.359
249.284, 225.816
249.766, 290.445
250.248, 334.156
250.730, 349.047
251.212, 348.762
251.695, 357.105
252.177, 375.703
252.659, 402.680
253.141, 436.480
253.623, 473.162
254.105, 533.076
254.587, 627.221
255.069, 740.828
255.551, 840.609
256.034, 922.629
256.516, 1000.188
256.998, 1074.443
257.480, 1133.615
257.962, 1225.410
258.444, 1367.027
258.926, 1531.879
259.408, 1665.994
259.891, 1761.992
260.373, 1836.406
260.855, 1892.125
261.337, 1919.428
261.819, 1956.977
262.301, 2015.340
262.783, 2078.201
263.265, 2093.277
263.747, 2027.221
264.229, 1984.998
264.712, 2024.875
265.194, 2173.727
265.676, 2297.002
266.158, 2358.590
266.640, 2410.180
267.122, 2434.307
267.604, 2513.871
268.086, 2582.777
268.569, 2640.852
269.051, 2647.945
269.533, 2718.242
270.015, 2763.230
270.497, 2808.625
270.979, 2875.619
271.461, 2935.701
271.943, 2990.549
272.426, 3009.064
272.908, 2991.816
273.390, 2936.652
273.872, 2841.230
274.354, 2709.738
274.836, 2545.531
275.318, 2344.814
275.800, 2127.980
276.282, 1890.635
276.765, 1624.750
277.247, 1423.867
277.729, 1302.426
278.211, 1240.260
278.693, 1199.543
279.175, 1184.412
279.657, 1163.752
280.139, 1116.951
280.621, 1043.551
281.104, 968.469
281.586, 890.312
282.068, 815.008
282.550, 751.758
283.032, 700.139
283.514, 664.660
283.996, 653.527
284.478, 665.479
284.961, 678.350
285.443, 694.381
285.925, 704.953
286.407, 681.756
286.889, 623.906
287.371, 580.395
287.853, 590.389
288.335, 645.838
288.818, 686.527
289.300, 700.223
289.782, 710.975
290.264, 756.344
290.746, 833.898
291.228, 930.600
291.710, 1058.348
292.192, 1207.379
292.674, 1326.088
293.156, 1399.555
293.639, 1462.980
294.121, 1566.250
294.603, 1705.461
295.085, 1864.877
295.567, 2066.559
296.049, 2284.498
296.531, 2442.281
297.013, 2522.041
297.496, 2580.330
297.978, 2696.943
298.460, 2856.504
298.942, 3004.848
299.424, 3107.723
299.906, 3184.088
300.388, 3266.502
300.870, 3356.795
301.353, 3445.174
301.835, 3517.566
302.317, 3578.387
302.799, 3643.908
303.281, 3739.527
303.763, 3833.266
304.245, 3891.244
304.727, 3915.264
305.209, 3884.863
305.691, 3766.264
306.174, 3576.291
306.656, 3355.822
307.138, 3106.635
307.620, 2845.713
308.102, 2589.623
308.584, 2338.736
309.066, 2085.854
309.548, 1806.367
310.031, 1523.002
310.513, 1268.176
310.995, 1054.732
311.477, 873.957
311.959, 723.969
312.441, 606.365
312.923, 500.783
313.405, 379.789
313.888, 268.346
314.370, 201.318
314.852, 232.193
315.334, 276.178
315.816, 279.145
316.298, 236.791
316.780, 217.410
317.262, 276.609
317.744, 364.152
318.227, 425.107
318.709, 424.350
319.191, 413.672
319.673, 413.939
320.155, 425.760
320.637, 427.105
321.119, 422.699
321.601, 399.787
322.083, 347.371
322.566, 214.740
323.048, 101.672
323.530, 41.396
324.012, 30.801
324.494, 6.268
324.976, 70.012
325.458, 146.660
325.940, 189.354
326.422, 155.588
326.905, 132.021
327.387, 143.793
327.869, 183.621
328.351, 183.463
328.833, 84.131
329.315, 9.873
329.797, 38.873
330.280, 42.352
330.762, 113.635
331.244, 168.529
331.726, 207.936
332.208, 207.807
332.690, 181.412
333.172, 124.439
333.654, 80.953
334.136, 58.652
334.618, 32.627
335.101, 3.055
335.583, 40.484
336.065, 60.324
336.547, 63.127
337.029, 47.443
337.511, 9.771
337.993, 55.588
338.475, 116.934
338.958, 169.537
339.440, 221.807
339.922, 292.836
340.404, 389.572
340.886, 474.619
341.368, 526.234
341.850, 543.379
342.332, 583.863
342.815, 655.064
343.297, 730.039
343.779, 768.922
344.261, 772.541
344.743, 764.805
345.225, 758.635
345.707, 750.238
346.189, 714.586
346.671, 648.865
347.154, 577.672
347.636, 523.129
348.118, 484.344
348.600, 456.986
349.082, 444.150
349.564, 438.129
350.046, 423.711
350.528, 400.234
351.010, 372.102
351.493, 338.373
351.975, 302.377
352.457, 271.268
352.939, 245.688
353.421, 227.254
353.903, 218.188
354.385, 218.457
354.867, 227.068
355.349, 240.088
355.832, 263.225
356.314, 305.975
356.796, 381.322
357.278, 459.492
357.760, 507.422
358.242, 538.867
358.724, 596.977
359.207, 710.092
359.689, 854.047
360.171, 1009.410
360.653, 1168.014
361.135, 1350.514
361.617, 1576.502
362.099, 1832.508
362.581, 2089.416
363.063, 2332.611
363.546, 2580.473
364.028, 2844.256
364.510, 3130.486
364.992, 3409.092
365.474, 3699.598
365.956, 3971.158
366.438, 4186.172
366.920, 4352.342
367.402, 4452.541
367.885, 4468.014
368.367, 4387.475
368.849, 4307.172
369.331, 4267.596
369.813, 4207.217
370.295, 4072.701
370.777, 3826.344
371.259, 3560.451
371.741, 3266.023
372.224, 2949.621
372.706, 2692.840
373.188, 2521.705
373.670, 2377.723
374.152, 2218.693
374.634, 2033.752
375.116, 1872.852
375.598, 1737.412
376.081, 1629.863
376.563, 1560.684
377.045, 1538.848
377.527, 1525.443
378.009, 1487.953
378.491, 1424.158
378.973, 1418.434
379.455, 1491.371
379.938, 1593.525
380.420, 1631.066
380.902, 1605.064
381.384, 1589.471
381.866, 1618.461
382.348, 1687.119
382.830, 1774.539
383.312, 1880.219
383.794, 1998.977
384.276, 2136.459
384.759, 2285.662
385.241, 2417.264
385.723, 2512.574
386.205, 2587.527
386.687, 2671.494
387.169, 2760.252
387.651, 2829.387
388.134, 2866.703
388.616, 2869.633
389.098, 2831.543
389.580, 2725.830
390.062, 2608.531
390.544, 2529.076
391.026, 2477.068
391.508, 2418.445
391.990, 2313.172
392.473, 2209.119
392.955, 2143.736
393.437, 2135.369
393.919, 2143.539
394.401, 2163.078
394.883, 2188.928
395.365, 2210.480
395.847, 2223.607
396.329, 2232.461
396.812, 2234.855
397.294, 2225.367
397.776, 2230.137
398.258, 2265.461
398.740, 2310.803
399.222, 2342.828
399.704, 2328.400
400.186, 2337.000
400.668, 2385.035
401.151, 2472.943
401.633, 2562.635
402.115, 2660.271
402.597, 2753.830
403.079, 2833.613
403.561, 2890.850
404.043, 2957.225
404.525, 3033.811
405.008, 3121.479
405.490, 3219.279
405.972, 3320.445
406.454, 3446.498
406.936, 3614.773
407.418, 3828.191
407.900, 4056.020
408.382, 4292.256
408.865, 4546.750
409.347, 4829.566
409.829, 5139.422
410.311, 5500.756
410.793, 5932.072
411.275, 6423.248
411.757, 6928.383
412.239, 7448.471
412.721, 7994.236
413.203, 8590.590
413.686, 9220.326
414.168, 9830.051
414.650, 10433.730
415.132, 10977.129
415.614, 11429.602
416.096, 11779.562
416.578, 11973.453
417.060, 11897.391
417.543, 11674.557
418.025, 11429.438
418.507, 11176.660
418.989, 10922.668
419.471, 10673.721
419.953, 10424.676
420.435, 10158.781
420.917, 9849.410
421.400, 9543.273
421.882, 9269.852
422.364, 9041.344
422.846, 8807.008
423.328, 8561.074
423.810, 8300.062
424.292, 8021.504
424.774, 7727.867
425.256, 7409.170
425.738, 7049.055
426.221, 6647.477
426.703, 6291.779
427.185, 6002.605
427.667, 5739.953
428.149, 5470.406
428.631, 5175.312
429.113, 4928.842
429.595, 4733.459
430.078, 4588.541
430.560, 4504.400
431.042, 4502.281
431.524, 4469.389
432.006, 4341.574
432.488, 4120.986
432.970, 3891.328
433.452, 3648.061
433.935, 3415.143
434.417, 3228.588
434.899, 3084.371
435.381, 2953.939
435.863, 2823.621
436.345, 2704.826
436.827, 2621.342
437.309, 2572.273
437.791, 2542.035
438.274, 2529.508
438.756, 2525.639
439.238, 2518.441
439.720, 2509.842
440.202, 2487.994
440.684, 2448.010
441.166, 2387.225
441.648, 2298.637
442.130, 2159.680
442.613, 2007.107
443.095, 1862.945
443.577, 1732.607
444.059, 1594.812
444.541, 1433.678
445.023, 1265.168
445.505, 1105.986
445.987, 940.021
446.470, 809.363
446.952, 732.152
447.434, 707.549
447.916, 688.141
448.398, 691.605
448.880, 683.865
449.362, 644.709
449.844, 564.568
450.327, 471.270
450.809, 348.930
451.291, 223.457
451.773, 155.322
452.255, 158.330
452.737, 168.242
453.219, 161.055
453.701, 136.855
454.183, 103.387
454.665, 56.551
455.148, 15.727
455.630, 8.967
456.112, 30.543
456.594, 42.664
457.076, 32.822
457.558, 11.244
458.040, 5.949
458.522, 19.086
459.005, 31.518
459.487, 45.785
459.969, 60.166
460.451, 73.500
460.933, 86.342
461.415, 94.396
461.897, 97.734
462.379, 93.648
462.862, 77.471
463.344, 23.672
463.826, 21.973
464.308, 28.672
464.790, 4.736
465.272, 25.469
465.754, 5.488
466.236, 23.617
466.718, 39.926
467.201, 29.635
467.683, 20.566
468.165, 11.693
468.647, 4.594
469.129, 4.570
469.611, 16.832
470.093, 27.146
470.575, 28.182
471.057, 17.219
471.540, 17.674
472.022, 35.895
472.504, 52.568
472.986, 37.332
473.468, 12.896
473.950, 44.770
474.432, 39.512
474.914, 12.146
475.397, 0.324
475.879, 3.258
476.361, 10.426
476.843, 12.174
477.325, 12.061
477.807, 18.723
478.289, 33.131
478.771, 50.709
479.254, 73.439
479.736, 95.482
480.218, 105.842
480.700, 92.877
481.182, 72.096
481.664, 63.908
482.146, 66.031
482.628, 39.215
483.110, 53.201
483.592, 12.107
484.075, 15.523
484.557, 30.467
485.039, 5.254
485.521, 24.369
486.003, 27.746
486.485, 30.016
486.967, 68.744
487.449, 40.232
487.931, 78.330
488.414, 89.797
488.896, 113.391
489.378, 110.611
489.860, 115.941
490.342, 147.617
490.824, 164.672
491.306, 158.742
491.789, 182.973
492.271, 165.271
492.753, 150.682
493.235, 139.938
493.717, 137.258
494.199, 143.443
494.681, 158.934
495.163, 193.154
495.645, 248.256
496.128, 292.652
496.610, 280.609
497.092, 240.336
497.574, 220.096
498.056, 261.389
498.538, 300.697
499.020, 283.199
499.502, 226.164
499.984, 193.113
500.467, 229.207
500.949, 281.578
501.431, 323.680
501.913, 357.348
502.395, 370.104
502.877, 328.895
503.359, 279.018
503.841, 274.793
504.323, 351.818
504.806, 418.377
505.288, 457.719
505.770, 472.357
506.252, 480.998
506.734, 480.398
507.216, 480.543
507.698, 480.568
508.181, 479.680
508.663, 519.262
509.145, 612.838
509.627, 714.746
510.109, 764.955
510.591, 769.525
511.073, 763.338
511.555, 757.037
512.037, 749.586
512.519, 734.338
513.002, 713.816
513.484, 703.912
513.966, 716.057
514.448, 743.562
514.930, 784.283
515.412, 845.766
515.894, 893.734
516.376, 887.271
516.859, 861.957
517.341, 870.139
517.823, 924.213
518.305, 1013.082
518.787, 1164.855
519.269, 1377.178
519.751, 1506.586
520.233, 1472.279
520.716, 1443.029
521.198, 1522.627
521.680, 1772.117
522.162, 1937.215
522.644, 1978.941
523.126, 1976.256
523.608, 2078.143
524.090, 2299.279
524.572, 2462.059
525.055, 2494.953
525.537, 2436.939
526.019, 2375.076
526.501, 2311.533
526.983, 2309.629
527.465, 2466.678
527.947, 2705.393
528.429, 2891.428
528.911, 2995.162
529.394, 3076.504
529.876, 3140.799
530.358, 3222.535
530.840, 3379.254
531.322, 3712.424
531.804, 4044.639
532.286, 4285.611
532.768, 4443.848
533.250, 4638.473
533.733, 4918.242
534.215, 5219.229
534.697, 5508.369
535.179, 5790.877
535.661, 6056.723
536.143, 6304.463
536.625, 6541.066
537.107, 6766.975
537.589, 6990.027
538.072, 7180.580
538.554, 7332.801
539.036, 7452.457
539.518, 7553.932
540.000, 7635.064
540.482, 7679.617
540.964, 7670.215
541.446, 7619.285
541.929, 7524.182
542.411, 7372.496
542.893, 7207.566
543.375, 7085.262
543.857, 6982.412
544.339, 6860.939
544.821, 6698.785
545.303, 6523.826
545.786, 6351.406
546.268, 6184.908
546.750, 6046.336
547.232, 5933.961
547.714, 5845.541
548.196, 5775.818
548.678, 5714.416
549.160, 5701.604
549.643, 5739.205
550.125, 5814.172
550.607, 5912.074
551.089, 6040.010
551.571, 6185.689
552.053, 6347.051
552.535, 6523.357
553.017, 6719.709
553.499, 6937.121
553.982, 7151.000
554.464, 7379.354
554.946, 7594.689
555.428, 7691.738
555.910, 7669.020
556.392, 7590.258
556.874, 7514.812
557.356, 7421.098
557.838, 7268.586
558.321, 7032.480
558.803, 6771.066
559.285, 6501.562
559.767, 6233.717
560.249, 5990.600
560.731, 5793.609
561.213, 5606.809
561.695, 5395.355
562.177, 5157.164
562.660, 5001.688
563.142, 4989.541
563.624, 5010.059
564.106, 5001.578
564.588, 4938.504
565.070, 4913.350
565.552, 4929.295
566.034, 4979.924
566.516, 5057.918
566.999, 5163.939
567.481, 5295.674
567.963, 5462.832
568.445, 5648.475
568.927, 5832.652
569.409, 6011.549
569.891, 6165.963
570.373, 6285.734
570.856, 6370.742
571.338, 6430.791
571.820, 6472.527
572.302, 6436.160
572.784, 6264.186
573.266, 6005.309
573.748, 5708.215
574.230, 5372.498
574.713, 5017.875
575.195, 4639.029
575.677, 4245.676
576.159, 3863.207
576.641, 3467.357
577.123, 3119.377
577.605, 2848.809
578.087, 2658.762
578.570, 2432.584
579.052, 2155.496
579.534, 1875.762
580.016, 1625.424
580.498, 1405.172
580.980, 1232.012
581.462, 1113.504
581.944, 1027.777
582.426, 953.934
582.909, 889.359
583.391, 828.477
583.873, 776.482
584.355, 720.438
584.837, 642.637
585.319, 548.139
585.801, 460.857
586.283, 389.908
586.765, 329.523
587.248, 273.947
587.730, 218.969
588.212, 184.682
588.694, 198.842
589.176, 218.977
589.658, 207.801
590.140, 142.328
590.622, 98.570
591.104, 90.125
591.587, 102.471
592.069, 105.264
592.551, 98.967
593.033, 80.750
593.515, 39.791
593.997, 10.932
594.479, 30.213
594.961, 19.188
595.443, 5.031
595.926, 14.676
596.408, 29.902
596.890, 17.389
597.372, 39.715
597.854, 69.488
598.336, 2.172
598.818, 113.107
599.300, 185.387
599.783, 168.318
600.265, 149.023
600.747, 153.426
601.229, 169.746
601.711, 161.041
602.193, 203.342
602.675, 137.602
603.157, 98.182
603.640, 83.652
604.122, 168.379
604.604, 125.053
605.086, 133.143
605.568, 143.396
606.050, 82.225
606.532, 152.824
607.014, 92.893
607.497, 85.119
607.979, 53.523
608.461, 73.600
608.943, 77.746
609.425, 30.232
609.907, 11.324
610.389, 37.369
610.871, 4.303
611.353, 53.303
611.836, 67.719
612.318, 57.580
612.800, 54.395
613.282, 62.277
613.764, 45.379
614.246, 7.588
614.728, 70.828
615.210, 126.531
615.692, 174.719
616.175, 215.338
616.657, 245.000
617.139, 277.805
617.621, 333.709
618.103, 411.246
618.585, 504.688
619.067, 623.893
619.549, 744.795
620.031, 827.889
620.514, 884.900
620.996, 959.891
621.478, 1079.703
621.960, 1219.342
622.442, 1366.420
622.924, 1518.430
623.406, 1674.033
623.888, 1830.246
624.370, 1991.523
624.853, 2158.750
625.335, 2323.197
625.817, 2517.863
626.299, 2762.584
626.781, 3014.188
627.263, 3203.340
627.745, 3327.322
628.227, 3470.348
628.710, 3659.928
629.192, 3875.180
629.674, 4086.172
630.156, 4291.578
630.638, 4477.314
631.120, 4628.863
631.602, 4764.523
632.084, 4898.062
632.567, 5031.338
633.049, 5168.928
633.531, 5306.553
634.013, 5456.199
634.495, 5625.248
634.977, 5824.229
635.459, 6025.367
635.941, 6221.219
636.424, 6424.295
636.906, 6651.863
637.388, 6907.744
637.870, 7161.219
638.352, 7400.146
638.834, 7640.812
639.316, 7921.363
639.798, 8244.328
640.280, 8623.836
640.763, 9055.812
641.245, 9559.596
641.727, 10140.039
642.209, 10804.992
642.691, 11607.340
643.173, 12599.092
643.655, 13740.107
644.137, 14972.611
644.619, 16279.398
645.102, 17781.994
645.584, 19503.105
646.066, 21451.986
646.548, 23666.645
647.030, 26151.080
647.512, 28877.443
647.994, 31905.910
648.476, 35078.711
648.958, 38304.848
649.441, 41588.789
649.923, 44398.957
650.405, 46666.988
650.887, 48180.820
651.369, 48504.656
651.851, 47662.949
652.333, 45865.160
652.815, 42795.086
653.297, 39082.207
653.780, 35176.469
654.262, 31116.447
654.744, 27281.613
655.226, 23772.172
655.708, 20620.010
656.190, 17865.053
656.672, 15523.859
657.154, 13495.477
657.636, 11828.703
658.119, 10440.305
658.601, 9233.383
659.083, 8221.016
659.565, 7320.242
660.047, 6518.604
660.529, 5831.324
661.011, 5311.775
661.494, 4934.270
661.976, 4568.299
662.458, 4141.133
662.940, 3716.170
663.422, 3370.238
663.904, 3098.176
664.386, 2845.141
664.868, 2580.508
665.350, 2346.846
665.833, 2176.512
666.315, 2078.340
666.797, 1979.723
667.279, 1875.061
667.761, 1770.348
668.243, 1662.195
668.725, 1541.734
669.207, 1461.252
669.690, 1428.891
670.172, 1423.164
670.654, 1432.199
671.136, 1447.400
671.618, 1420.609
672.100, 1327.385
672.582, 1213.186
673.064, 1124.977
673.546, 1060.912
674.029, 1014.971
674.511, 997.432
674.993, 988.418
675.475, 980.619
675.957, 975.201
676.439, 975.000
676.921, 988.809
677.403, 1000.855
677.885, 1000.344
678.368, 985.170
678.850, 1010.145
679.332, 1089.328
679.814, 1160.713
680.296, 1153.248
680.778, 1085.102
681.260, 1067.094
681.742, 1110.438
682.224, 1182.143
682.707, 1274.377
683.189, 1365.182
683.671, 1415.318
684.153, 1388.873
684.635, 1364.209
685.117, 1381.045
685.599, 1422.814
686.081, 1460.996
686.563, 1479.615
687.046, 1512.826
687.528, 1580.480
688.010, 1666.557
688.492, 1697.996
688.974, 1660.195
689.456, 1637.602
689.938, 1674.025
690.420, 1752.596
690.903, 1816.283
691.385, 1865.732
691.867, 1908.371
692.349, 1929.512
692.831, 1956.082
693.313, 2029.244
693.795, 2157.053
694.277, 2268.596
694.760, 2300.418
695.242, 2322.318
695.724, 2389.648
696.206, 2548.949
696.688, 2684.436
697.170, 2783.377
697.652, 2872.969
698.134, 2979.686
698.617, 3101.391
699.099, 3267.867
699.581, 3491.180
700.063, 3751.611
700.545, 4008.842
701.027, 4270.889
701.509, 4561.871
701.991, 4893.752
702.473, 5257.332
702.956, 5672.182
703.438, 6117.168
703.920, 6523.293
704.402, 6817.711
704.884, 7109.266
705.366, 7453.594
705.848, 7849.414
706.330, 8183.668
706.812, 8435.465
707.295, 8662.629
707.777, 8884.748
708.259, 9098.832
708.741, 9358.070
709.223, 9664.430
709.705, 10008.141
710.187, 10386.875
710.669, 10791.223
711.151, 11207.086
711.634, 11633.906
712.116, 12058.227
712.598, 12465.975
713.080, 12874.496
713.562, 13297.309
714.044, 13788.176
714.526, 14235.775
715.008, 14654.215
715.490, 15014.889
715.973, 15249.494
716.455, 15330.865
716.937, 15394.123
717.419, 15485.986
717.901, 15560.535
718.383, 15516.758
718.865, 15351.492
719.347, 15085.965
719.830, 14692.457
720.312, 14232.199
720.794, 13758.242
721.276, 13269.273
721.758, 12749.256
722.240, 12177.996
722.722, 11575.465
723.204, 10922.822
723.687, 10226.016
724.169, 9596.711
724.651, 9041.676
725.133, 8526.990
725.615, 8046.094
726.097, 7595.977
726.579, 7139.969
727.061, 6672.848
727.544, 6228.133
728.026, 5828.244
728.508, 5465.350
728.990, 5115.520
729.472, 4771.176
729.954, 4468.477
730.436, 4262.408
730.918, 4100.605
731.400, 3924.266
731.883, 3687.502
732.365, 3487.037
732.847, 3339.314
733.329, 3220.973
733.811, 3103.924
734.293, 2992.605
734.775, 2854.266
735.257, 2670.859
735.739, 2478.082
736.222, 2355.418
736.704, 2287.877
737.186, 2210.197
737.668, 2079.016
738.150, 1941.250
738.632, 1848.512
739.114, 1786.223
739.596, 1711.297
740.078, 1588.438
740.561, 1472.461
741.043, 1383.441
741.525, 1319.662
742.007, 1271.871
742.489, 1247.123
742.971, 1219.635
743.453, 1163.541
743.935, 1088.963
744.417, 1083.977
744.900, 1147.510
745.382, 1206.639
745.864, 1203.414
746.346, 1163.180
746.828, 1108.096
747.310, 1037.961
747.792, 991.477
748.274, 1029.275
748.757, 1068.617
749.239, 1034.367
749.721, 841.986
750.203, 809.156
750.685, 747.393
751.167, 715.111
751.649, 675.707
752.131, 629.555
752.614, 556.391
753.096, 517.686
753.578, 479.832
754.060, 469.936
754.542, 476.346
755.024, 475.410
755.506, 451.838
755.988, 434.576
756.471, 453.705
756.953, 482.795
757.435, 482.836
757.917, 423.215
758.399, 365.623
758.881, 310.908
759.363, 263.922
759.845, 245.047
760.327, 259.822
760.810, 241.785
761.292, 158.303
761.774, 49.635
762.256, 8.277
762.738, 26.170
763.220, 39.955
763.702, 70.369
764.184, 98.133
764.666, 113.498
765.148, 116.943
765.631, 110.213
766.113, 82.178
766.595, 60.211
767.077, 57.695
767.559, 71.568
768.041, 61.977
768.523, 25.447
769.005, 3.082
769.487, 5.531
769.970, 36.062
770.452, 49.135
770.934, 46.561
771.416, 47.303
771.898, 60.719
772.380, 83.768
772.862, 122.414
773.344, 180.354
773.827, 207.303
774.309, 154.029
774.791, 110.064
775.273, 135.691
775.755, 246.871
776.237, 271.352
776.719, 193.732
777.201, 97.611
777.683, 52.180
778.166, 44.566
778.648, 52.621
779.130, 77.094
779.612, 84.904
780.094, 28.064
780.576, 42.910
781.058, 74.582
781.541, 22.268
782.023, 10.605
782.505, 81.264
782.987, 163.547
783.469, 179.832
783.951, 113.643
784.433, 103.381
784.915, 173.559
785.397, 260.438
785.880, 259.402
786.362, 216.314
786.844, 253.137
787.326, 433.912
787.808, 611.604
788.290, 682.184
788.772, 692.875
789.254, 705.457
789.737, 734.221
790.219, 761.092
790.701, 771.842
791.183, 788.125
791.665, 853.209
792.147, 974.365
792.629, 1076.793
793.111, 1133.174
793.593, 1172.992
794.076, 1245.812
794.558, 1337.887
795.040, 1411.166
795.522, 1425.486
796.004, 1447.266
796.486, 1529.371
796.968, 1643.471
797.450, 1724.588
797.932, 1737.402
798.415, 1767.697
798.897, 1837.809
799.379, 1923.324
799.861, 1952.703
800.343, 1926.715
800.825, 1922.943
801.307, 1977.467
801.789, 2058.744
802.271, 2135.320
802.754, 2203.244
803.236, 2252.418
803.718, 2240.570
804.200, 2247.285
804.682, 2332.014
805.164, 2468.244
805.646, 2535.043
806.128, 2513.164
806.610, 2458.939
807.093, 2378.568
807.575, 2284.070
808.057, 2213.758
808.539, 2166.285
809.021, 2128.199
809.503, 2093.928
809.985, 2064.410
810.468, 2003.277
810.950, 1937.885
811.432, 1902.195
811.914, 1904.809
812.396, 1898.020
812.878, 1882.033
813.360, 1830.938
813.842, 1825.068
814.324, 1801.016
814.807, 1776.156
815.289, 1776.518
815.771, 1730.279
816.253, 1730.135
816.735, 1711.529
817.217, 1688.594
817.699, 1644.629
818.181, 1620.496
818.664, 1591.461
819.146, 1558.857
819.628, 1539.883
820.110, 1570.059
820.592, 1577.455
821.074, 1527.436
821.556, 1428.959
822.038, 1380.730
822.520, 1389.162
823.003, 1397.113
823.485, 1354.820
823.967, 1298.289
824.449, 1300.250
824.931, 1351.002
825.413, 1396.213
825.895, 1397.180
826.377, 1394.959
826.859, 1413.385
827.342, 1451.109
827.824, 1474.975
828.306, 1484.066
828.788, 1482.350
829.270, 1471.965
829.752, 1451.256
830.234, 1406.916
830.716, 1340.088
831.198, 1275.729
831.681, 1247.703
832.163, 1229.279
832.645, 1181.297
833.127, 1102.822
833.609, 1026.258
834.091, 981.285
834.573, 941.191
835.055, 894.391
835.537, 838.006
836.020, 774.785
836.502, 700.205
836.984, 633.529
837.466, 602.051
837.948, 587.279
838.430, 513.469
838.912, 388.715
839.394, 284.918
839.877, 259.598
840.359, 261.635
840.841, 258.234
841.323, 247.850
841.805, 237.707
842.287, 233.861
842.769, 219.957
843.251, 180.027
843.734, 123.793
844.216, 115.219
844.698, 152.908
845.180, 196.209
845.662, 233.260
846.144, 253.445
846.626, 226.592
847.108, 164.641
847.591, 130.744
848.073, 208.193
848.555, 255.006
849.037, 192.939
849.519, 46.918
850.001, 19.846
850.483, 9.643
850.965, 42.586
851.447, 35.520
851.930, 6.221
852.412, 3.514
852.894, 2.465
853.376, 4.479
853.858, 3.795
854.340, 22.523
854.822, 67.189
855.304, 127.377
855.786, 146.154
856.269, 100.896
856.751, 51.471
857.233, 12.930
857.715, 15.631
858.197, 29.627
858.679, 30.742
859.161, 44.258
859.643, 104.375
860.125, 159.770
860.608, 134.580
861.090, 60.750
861.572, 22.896
862.054, 89.285
862.536, 146.723
863.018, 174.844
863.500, 174.500
863.982, 134.410
864.464, 45.225
864.947, 5.115
865.429, 20.574
865.911, 78.748
866.393, 102.793
866.875, 103.932
867.357, 109.941
867.839, 149.154
868.321, 177.988
868.804, 157.566
869.286, 122.518
869.768, 142.160
870.250, 244.346
870.732, 331.072
871.214, 392.631
871.696, 422.582
872.178, 376.850
872.661, 284.621
873.143, 258.605
873.625, 346.646
874.107, 470.523
874.589, 599.461
875.071, 720.127
875.553, 815.719
876.035, 848.982
876.518, 900.682
877.000, 966.951
877.482, 1057.578
877.964, 1191.996
878.446, 1367.654
878.928, 1556.441
879.410, 1756.361
879.892, 1949.596
880.374, 2106.033
880.857, 2250.723
881.339, 2416.629
881.821, 2620.385
882.303, 2819.871
882.785, 3014.289
883.267, 3195.900
883.749, 3340.811
884.231, 3435.488
884.713, 3629.902
885.196, 3941.086
885.678, 4262.654
886.160, 4523.152
886.642, 4718.018
887.124, 4813.297
887.606, 4800.738
888.088, 4809.154
888.570, 4962.447
889.052, 5095.562
889.534, 5097.021
890.017, 4955.219
890.499, 4848.223
890.981, 4788.389
891.463, 4712.574
891.945, 4574.908
892.427, 4390.559
892.909, 4186.898
893.391, 3968.016
893.874, 3759.447
894.356, 3548.318
894.838, 3352.959
895.320, 3155.988
895.802, 2971.992
896.284, 2814.582
896.766, 2715.715
897.248, 2601.209
897.731, 2472.324
898.213, 2288.473
898.695, 2174.336
899.177, 1952.934
899.659, 1799.287
900.141, 1741.979
900.623, 1690.857
901.105, 1564.377
901.588, 1401.227
902.070, 1304.355
902.552, 1324.617
903.034, 1336.855
903.516, 1320.637
903.998, 1283.834
904.480, 1234.754
904.962, 1176.102
905.444, 1128.000
905.927, 1099.131
906.409, 1076.145
906.891, 1035.059
907.373, 994.936
907.855, 982.729
908.337, 1042.812
908.819, 1084.434
909.301, 1074.826
909.783, 1078.662
910.266, 1050.961
910.748, 1094.053
911.230, 1120.188
911.712, 1129.627
912.194, 1073.268
912.676, 1096.434
913.158, 1089.225
913.640, 1062.637
914.122, 991.449
914.605, 975.543
915.087, 1078.490
915.569, 1179.229
916.051, 1191.963
916.533, 1116.684
917.015, 1118.527
917.497, 1201.492
917.979, 1277.746
918.461, 1258.541
918.944, 1215.271
919.426, 1219.082
919.908, 1275.711
920.390, 1259.949
920.872, 1316.029
921.354, 1354.701
921.836, 1376.730
922.318, 1332.025
922.801, 1369.670
923.283, 1375.244
923.765, 1397.176
924.247, 1388.529
924.729, 1368.367
925.211, 1369.789
925.693, 1377.805
926.175, 1358.455
926.657, 1238.027
927.140, 1169.285
927.622, 1209.754
928.104, 1298.801
928.586, 1337.750
929.068, 1325.258
929.550, 1286.156
930.032, 1217.203
930.515, 1153.561
930.997, 1145.537
931.479, 1165.533
931.961, 1175.693
932.443, 1171.994
932.925, 1144.609
933.407, 1054.355
933.889, 972.324
934.371, 961.535
934.854, 1032.871
935.336, 1039.113
935.818, 971.797
936.300, 913.133
936.782, 965.783
937.264, 1046.773
937.746, 1046.789
938.228, 960.559
938.710, 875.578
939.193, 825.832
939.675, 773.377
940.157, 697.752
940.639, 606.246
941.121, 553.412
941.603, 539.736
942.085, 539.197
942.567, 554.547
943.049, 561.855
943.532, 523.496
944.014, 453.932
944.496, 387.998
944.978, 327.668
945.460, 286.039
945.942, 273.355
946.424, 273.314
946.906, 256.820
947.388, 224.029
947.871, 196.271
948.353, 175.572
948.835, 169.258
949.317, 228.844
949.799, 287.324
950.281, 243.490
950.763, 14.141
951.245, 131.418
951.728, 125.771
952.210, 77.666
952.692, 60.588
953.174, 74.070
953.656, 72.117
954.138, 54.686
954.620, 36.146
955.102, 24.373
955.584, 18.770
956.067, 20.477
956.549, 28.752
957.031, 38.191
957.513, 67.809
957.995, 64.348
958.477, 5.406
958.959, 109.234
959.442, 140.273
959.924, 108.402
960.406, 85.324
960.888, 111.145
961.370, 136.766
961.852, 103.559
962.334, 48.125
962.816, 32.195
963.298, 95.492
963.781, 143.031
964.263, 168.449
964.745, 180.488
965.227, 182.387
965.709, 179.539
966.191, 204.789
966.673, 265.727
967.155, 299.980
967.638, 229.941
968.120, 143.449
968.602, 107.734
969.084, 132.387
969.566, 174.418
970.048, 246.090
970.530, 295.512
971.012, 279.586
971.494, 228.484
971.977, 226.457
972.459, 263.055
972.941, 294.500
973.423, 294.770
973.905, 289.461
974.387, 289.754
974.869, 292.371
975.351, 283.934
975.833, 253.086
976.316, 269.324
976.798, 357.848
977.280, 457.332
977.762, 482.875
978.244, 460.250
978.726, 425.273
979.208, 372.375
979.690, 356.441
980.172, 448.691
980.655, 538.473
981.137, 544.746
981.619, 460.891
982.101, 423.621
982.583, 434.996
983.065, 461.660
983.547, 495.992
984.029, 522.832
984.511, 516.527
984.994, 484.520
985.476, 463.594
985.958, 471.664
986.440, 484.438
986.922, 502.164
987.404, 517.805
987.886, 504.777
988.369, 468.477
988.851, 463.023
989.333, 516.438
989.815, 564.574
990.297, 540.309
990.779, 487.211
991.261, 456.590
991.743, 472.715
992.225, 470.727
992.708, 440.109
993.190, 414.914
993.672, 419.387
994.154, 451.090
994.636, 519.168
995.118, 619.176
995.600, 697.297
996.082, 722.609
996.565, 717.703
997.047, 668.523
997.529, 597.121
998.011, 595.543
998.493, 678.988
998.975, 715.934
999.457, 647.375
999.939, 560.031
1000.421, 586.367
1000.904, 686.496
1001.386, 790.133
1001.868, 907.086
1002.350, 966.504
1002.832, 889.750
1003.314, 799.730
1003.796, 808.609
1004.278, 921.051
1004.760, 956.293
1005.243, 906.305
1005.725, 872.984
1006.207, 988.055
1006.689, 1125.457
1007.171, 1141.789
1007.653, 1045.633
1008.135, 992.551
1008.617, 1023.984
1009.099, 1054.246
1009.582, 1078.500
1010.064, 1087.555
1010.546, 1040.332
1011.028, 996.102
1011.510, 1084.734
1011.992, 1144.348
1012.474, 1175.219
1012.956, 1081.148
1013.438, 1140.328
1013.921, 1136.391
1014.403, 1129.359
1014.885, 1209.266
1015.367, 1125.918
1015.849, 1202.723
1016.331, 1219.074
1016.813, 1264.953
1017.295, 1247.523
1017.778, 1249.680
1018.260, 1315.051
1018.742, 1345.363
1019.224, 1288.387
1019.706, 1307.816
1020.188, 1258.414
1020.670, 1244.973
1021.152, 1265.465
1021.634, 1291.461
1022.117, 1316.219
1022.599, 1340.074
1023.081, 1359.949
1023.563, 1379.969
1024.045, 1405.691
1024.527, 1442.086
1025.009, 1470.301
1025.491, 1493.793
1025.974, 1497.316
1026.456, 1448.688
1026.938, 1376.602
1027.420, 1376.457
1027.902, 1431.535
1028.384, 1445.492
1028.866, 1315.746
1029.348, 1196.629
1029.830, 1154.781
1030.313, 1163.664
1030.795, 1183.633
1031.277, 1217.652
1031.759, 1217.582
1032.241, 1168.211
1032.723, 1110.859
1033.205, 1100.543
1033.687, 1104.980
1034.170, 1082.191
1034.652, 1016.602
1035.134, 972.551
1035.616, 959.215
1036.098, 956.160
1036.580, 954.176
1037.062, 951.715
1037.544, 943.078
1038.026, 929.262
1038.509, 918.809
1038.991, 941.121
1039.473, 938.828
1039.955, 841.891
1040.437, 719.191
1040.919, 706.227
1041.401, 836.098
1041.883, 872.652
1042.365, 782.410
1042.848, 654.980
1043.330, 578.785
1043.812, 525.883
1044.294, 454.586
1044.776, 359.492
1045.258, 296.512
1045.740, 287.648
1046.222, 291.680
1046.705, 298.676
1047.187, 304.711
1047.669, 302.055
1048.151, 287.516
1048.633, 246.270
1049.115, 147.930
1049.597, 61.008
1050.079, 24.305
1050.562, 20.461
1051.044, 28.500
1051.526, 52.246
1052.008, 68.344
1052.490, 74.570
1052.972, 84.746
1053.454, 130.941
1053.936, 174.133
1054.418, 144.145
1054.901, 52.461
1055.383, 1.004
1055.865, 43.285
1056.347, 87.332
1056.829, 116.895
1057.311, 133.883
1057.793, 146.098
1058.275, 150.070
1058.757, 126.887
1059.240, 64.418
1059.722, 10.883
1060.204, 9.793
1060.686, 19.457
1061.168, 4.117
1061.650, 37.980
1062.132, 50.129
1062.614, 27.719
1063.097, 21.590
1063.579, 88.277
1064.061, 164.648
1064.543, 165.695
1065.025, 119.020
1065.507, 90.312
1065.989, 117.203
1066.471, 128.789
1066.953, 116.672
1067.436, 94.480
1067.918, 71.562
1068.400, 51.828
1068.882, 58.480
1069.364, 92.922
1069.846, 102.551
1070.328, 36.805
1070.810, 37.184
1071.292, 91.113
1071.775, 124.848
1072.257, 128.867
1072.739, 102.336
1073.221, 85.668
1073.703, 93.102
1074.185, 109.480
1074.667, 120.914
1075.149, 132.434
1075.631, 151.664
1076.114, 183.750
1076.596, 218.641
1077.078, 269.250
1077.560, 290.211
1078.042, 209.285
1078.524, 94.281
1079.006, 119.129
1079.488, 247.957
1079.971, 344.348
1080.453, 349.375
1080.935, 314.480
1081.417, 223.707
1081.899, 129.738
1082.381, 127.316
1082.863, 200.926
1083.345, 194.980
1083.828, 84.645
1084.310, 0.453
1084.792, 78.242
1085.274, 180.152
1085.756, 183.457
1086.238, 102.371
1086.720, 103.379
1087.202, 203.730
1087.684, 271.344
1088.167, 256.594
1088.649, 201.797
1089.131, 151.176
1089.613, 103.309
1090.095, 50.621
1090.577, 35.680
1091.059, 39.785
1091.541, 88.465
1092.023, 207.664
1092.506, 197.348
1092.988, 106.316
1093.470, 90.160
1093.952, 138.727
1094.434, 208.828
1094.916, 312.934
1095.398, 392.688
1095.880, 404.367
1096.363, 398.164
1096.845, 445.555
1097.327, 544.035
1097.809, 636.367
1098.291, 718.609
1098.773, 765.898
1099.255, 708.062
1099.737, 651.980
1100.219, 700.219
1100.702, 839.645
1101.184, 921.508
1101.666, 932.137
1102.148, 953.121
1102.630, 1003.672
1103.112, 1084.598
1103.594, 1231.355
1104.076, 1391.930
1104.558, 1473.211
1105.041, 1410.465
1105.523, 1446.277
1106.005, 1636.223
1106.487, 1840.230
1106.969, 1976.316
1107.451, 2066.383
1107.933, 2151.062
1108.415, 2244.035
1108.898, 2382.285
1109.380, 2677.152
1109.862, 2899.148
1110.344, 2946.512
1110.826, 2934.438
1111.308, 2991.352
1111.790, 3109.418
1112.272, 3147.766
1112.755, 3099.539
1113.237, 2997.625
1113.719, 2846.590
1114.201, 2675.961
1114.683, 2485.277
1115.165, 2289.926
1115.647, 2147.996
1116.129, 2072.910
1116.611, 1922.660
1117.094, 1652.320
1117.576, 1377.078
1118.058, 1242.527
1118.540, 1163.844
1119.022, 1035.301
1119.504, 834.672
1119.986, 708.695
1120.468, 692.699
1120.950, 669.949
1121.433, 591.527
1121.915, 475.836
1122.397, 340.164
1122.879, 208.918
1123.361, 126.570
1123.843, 123.398
1124.325, 122.812
1124.807, 116.695
1125.290, 109.207
1125.772, 112.676
1126.254, 116.406
1126.736, 47.242
1127.218, 77.965
1127.700, 161.664
1128.182, 143.910
1128.664, 79.023
1129.146, 55.688
1129.629, 188.590
1130.111, 222.324
1130.593, 159.910
1131.075, 135.359
1131.557, 158.082
1132.039, 187.160
1132.521, 204.191
1133.003, 207.422
1133.485, 191.230
1133.968, 161.500
1134.450, 134.012
1134.932, 108.520
1135.414, 102.551
1135.896, 125.145
1136.378, 149.742
1136.860, 131.473
1137.342, 110.574
1137.825, 143.223
1138.307, 243.215
1138.789, 267.387
1139.271, 179.848
1139.753, 133.512
1140.235, 132.785
1140.717, 186.363
1141.199, 226.801
1141.682, 254.902
1142.164, 232.754
1142.646, 275.367
1143.128, 292.258
1143.610, 308.129
1144.092, 359.930
1144.574, 345.660
1145.056, 396.969
1145.538, 417.379
1146.021, 451.938
1146.503, 495.449
1146.985, 478.992
1147.467, 430.754
1147.949, 329.945
1148.431, 238.254
1148.913, 229.281
1149.395, 290.523
1149.877, 364.871
1150.360, 443.832
1150.842, 482.816
1151.324, 412.914
1151.806, 343.328
1152.288, 315.527
1152.770, 317.277
1153.252, 338.254
1153.734, 375.309
1154.217, 387.527
1154.699, 367.832
1155.181, 347.699
1155.663, 342.789
1156.145, 353.547
1156.627, 402.723
1157.109, 470.762
1157.591, 460.980
1158.073, 369.566
1158.556, 322.320
1159.038, 366.727
1159.520, 415.164
1160.002, 358.395
1160.484, 281.230
1160.966, 287.449
1161.448, 390.480
1161.930, 395.301
1162.412, 282.430
1162.895, 200.977
1163.377, 229.234
1163.859, 296.922
1164.341, 342.457
1164.823, 364.074
1165.305, 355.137
1165.787, 297.508
1166.269, 266.160
1166.752, 268.715
1167.234, 270.969
1167.716, 241.914
1168.198, 205.473
1168.680, 186.355
1169.162, 190.379
1169.644, 231.793
1170.126, 354.262
1170.609, 442.809
1171.091, 480.832
1171.573, 511.359
1172.055, 569.844
1172.537, 648.949
1173.019, 741.180
1173.501, 842.168
1173.983, 944.336
1174.465, 1022.469
1174.948, 1137.543
1175.430, 1309.879
1175.912, 1502.316
1176.394, 1687.215
1176.876, 1851.375
1177.358, 1953.941
1177.840, 1995.324
1178.322, 2066.195
1178.804, 2286.973
1179.287, 2426.961
1179.769, 2402.727
1180.251, 2295.629
1180.733, 2274.980
1181.215, 2303.934
1181.697, 2265.594
1182.179, 2135.336
1182.661, 1982.996
1183.144, 1815.523
1183.626, 1659.684
1184.108, 1528.121
1184.590, 1413.527
1185.072, 1291.016
1185.554, 1163.926
1186.036, 1055.207
1186.518, 975.535
1187.000, 897.512
1187.483, 795.703
1187.965, 703.297
1188.447, 644.742
1188.929, 613.043
1189.411, 559.957
1189.893, 493.812
1190.375, 458.789
1190.857, 497.934
1191.339, 525.699
1191.822, 481.875
1192.304, 422.746
1192.786, 389.203
1193.268, 380.707
1193.750, 407.949
1194.232, 462.512
1194.714, 473.098
1195.196, 331.934
1195.678, 216.816
1196.161, 249.918
1196.643, 329.895
1197.125, 343.359
1197.607, 288.211
1198.089, 266.324
1198.571, 279.402
1199.053, 310.398
1199.535, 380.367
1200.018, 431.812
1200.500, 411.457
1200.982, 362.504
1201.464, 352.012
1201.946, 380.891
1202.428, 403.121
1202.910, 415.105
1203.392, 430.105
1203.875, 471.793
1204.357, 505.102
1204.839, 489.047
1205.321, 454.457
1205.803, 479.605
1206.285, 565.801
1206.767, 592.816
1207.249, 542.297
1207.731, 501.875
1208.214, 554.871
1208.696, 631.266
1209.178, 685.027
1209.660, 718.805
1210.142, 735.793
1210.624, 732.199
1211.106, 756.766
1211.588, 827.297
1212.070, 878.957
1212.553, 865.992
1213.035, 945.137
1213.517, 1001.988
1213.999, 1037.738
1214.481, 989.023
1214.963, 1049.801
1215.445, 1067.152
1215.927, 1082.270
1216.410, 1134.320
1216.892, 1233.293
1217.374, 1365.508
1217.856, 1368.637
1218.338, 1264.766
1218.820, 1238.504
1219.302, 1289.012
1219.784, 1357.699
1220.266, 1431.859
1220.749, 1499.859
1221.231, 1525.133
1221.713, 1564.422
1222.195, 1679.938
1222.677, 1865.137
1223.159, 1985.688
1223.641, 2043.777
1224.123, 2081.762
1224.605, 2095.145
1225.088, 2133.848
1225.570, 2269.391
1226.052, 2417.316
1226.534, 2485.598
1227.016, 2474.805
1227.498, 2551.770
1227.980, 2711.219
1228.462, 2859.887
1228.945, 2962.148
1229.427, 3032.242
1229.909, 3056.820
1230.391, 3068.707
1230.873, 3102.465
1231.355, 3158.480
1231.837, 3210.906
1232.319, 3259.809
1232.802, 3306.637
1233.284, 3375.809
1233.766, 3415.176
1234.248, 3360.188
1234.730, 3291.938
1235.212, 3306.070
1235.694, 3396.527
1236.176, 3391.270
1236.658, 3296.992
1237.141, 3203.535
1237.623, 3177.547
1238.105, 3145.535
1238.587, 3060.637
1239.069, 2965.977
1239.551, 2913.270
1240.033, 2895.066
1240.515, 2828.449
1240.997, 2717.027
1241.480, 2616.324
1241.962, 2553.098
1242.444, 2513.824
1242.926, 2508.562
1243.408, 2508.773
1243.890, 2484.945
1244.372, 2436.961
1244.854, 2342.957
1245.337, 2210.988
1245.819, 2121.422
1246.301, 2180.398
1246.783, 2193.242
1247.265, 2095.746
1247.747, 1950.012
1248.229, 1827.738
1248.711, 1726.566
1249.193, 1649.539
1249.676, 1594.469
1250.158, 1538.566
1250.640, 1490.008
1251.122, 1411.945
1251.604, 1281.406
1252.086, 1153.133
1252.568, 1134.633
1253.050, 1168.746
1253.532, 1104.441
1254.015, 941.973
1254.497, 825.555
1254.979, 847.090
1255.461, 833.992
1255.943, 740.957
1256.425, 631.602
1256.907, 605.098
1257.389, 616.367
1257.872, 587.852
1258.354, 514.754
1258.836, 456.699
1259.318, 416.328
1259.800, 408.664
1260.282, 450.594
1260.764, 483.254
1261.246, 426.723
1261.729, 321.125
1262.211, 200.336
1262.693, 74.352
1263.175, 4.293
1263.657, 8.555
1264.139, 10.648
1264.621, 3.699
1265.103, 29.891
1265.585, 78.188
1266.068, 124.363
1266.550, 151.055
1267.032, 152.379
1267.514, 101.086
1267.996, 10.441
1268.478, 104.305
1268.960, 161.086
1269.442, 201.082
1269.924, 236.574
1270.407, 267.480
1270.889, 300.625
1271.371, 327.590
1271.853, 290.875
1272.335, 193.277
1272.817, 172.871
1273.299, 272.105
1273.781, 385.625
1274.264, 457.516
1274.746, 497.258
1275.228, 504.664
1275.710, 493.078
1276.192, 510.223
1276.674, 549.012
1277.156, 559.266
1277.638, 523.090
1278.120, 487.719
1278.603, 479.539
1279.085, 411.773
1279.567, 273.910
1280.049, 168.766
1280.531, 116.473
1281.013, 73.430
1281.495, 74.539
1281.977, 134.301
1282.459, 175.906
1282.942, 183.480
1283.424, 177.914
1283.906, 165.801
1284.388, 143.625
1284.870, 76.453
1285.352, 5.758
1285.834, 37.656
1286.316, 200.719
1286.799, 270.727
1287.281, 239.707
1287.763, 201.965
1288.245, 188.930
1288.727, 154.852
1289.209, 118.375
1289.691, 81.332
1290.173, 43.688
1290.656, 17.641
1291.138, 0.945
1291.620, 0.000
##END=



