##NAMES=Pezzottaite
##RRUFFID=R060583
##IDEAL CHEMISTRY=CsLiBe_2_Al_2_Si_6_O_18_
##LOCALITY=Ambatovita, Mandrosonoro area, Fianarantsoa Province, Madagascar
##OWNER=RRUFF
##SOURCE=Michael Scott
##DESCRIPTION=Pink thin tabular hexagonal plate
##STATUS=The identification of this mineral has been confirmed by X-ray diffraction.
##URL=rruff.info/R060583
106.094, 0.000
106.576, 42.466
107.058, 292.961
107.540, 644.887
108.022, 1040.935
108.504, 1516.202
108.986, 2077.588
109.468, 2789.683
109.951, 3467.749
110.433, 4165.318
110.915, 4839.562
111.397, 5341.246
111.879, 5628.442
112.361, 5761.217
112.843, 5765.465
113.326, 5679.242
113.808, 5448.208
114.290, 4966.724
114.772, 4265.081
115.254, 3589.021
115.736, 2986.876
116.218, 2454.345
116.700, 1965.579
117.182, 1576.550
117.664, 1241.848
118.147, 944.652
118.629, 679.661
119.111, 451.449
119.593, 260.461
120.075, 109.183
120.557, 4.091
121.039, 36.162
121.521, 36.834
122.004, 26.904
122.486, 27.835
122.968, 34.662
123.450, 41.365
123.932, 47.949
124.414, 54.419
124.896, 60.782
125.378, 67.045
125.860, 73.218
126.343, 79.305
126.825, 32.932
127.307, 178.738
127.789, 356.866
128.271, 562.687
128.753, 790.272
129.235, 1046.656
129.717, 1353.944
130.200, 1687.500
130.682, 2040.647
131.164, 2445.280
131.646, 2935.627
132.128, 3452.237
132.610, 3975.982
133.092, 4504.165
133.574, 4866.683
134.057, 4946.714
134.539, 4755.716
135.021, 4440.039
135.503, 3968.642
135.985, 3417.663
136.467, 2932.710
136.949, 2491.065
137.431, 2196.800
137.913, 2079.678
138.396, 1962.588
138.878, 1845.576
139.360, 1728.614
139.842, 1611.699
140.324, 1494.828
140.806, 1377.997
141.288, 1261.186
141.770, 1144.439
142.253, 1027.732
142.735, 911.036
143.217, 728.715
143.699, 624.521
144.181, 533.335
144.663, 452.989
145.145, 386.601
145.627, 341.188
146.109, 323.996
146.592, 317.183
147.074, 320.553
147.556, 338.173
148.038, 360.895
148.520, 404.021
149.002, 457.817
149.484, 477.830
149.966, 438.180
150.449, 372.864
150.931, 296.302
151.413, 173.715
151.895, 69.291
152.377, 3.283
152.859, 55.735
153.341, 90.547
153.823, 108.349
154.305, 108.777
154.788, 91.702
155.270, 53.854
155.752, 1.460
156.234, 66.697
156.716, 150.341
157.198, 241.221
157.680, 332.497
158.162, 432.899
158.645, 551.389
159.127, 707.964
159.609, 867.934
160.091, 1011.860
160.573, 1129.212
161.055, 1269.327
161.537, 1454.701
162.019, 1673.160
162.501, 1906.500
162.984, 2146.253
163.466, 2399.269
163.948, 2655.576
164.430, 2892.922
164.912, 3198.661
165.394, 3823.408
165.876, 4580.320
166.358, 4990.106
166.840, 4593.868
167.323, 3853.459
167.805, 3152.082
168.287, 2528.044
168.769, 2035.278
169.251, 1725.648
169.733, 1580.338
170.215, 1507.425
170.697, 1453.902
171.180, 1438.648
171.662, 1488.873
172.144, 1678.928
172.626, 1886.727
173.108, 1982.133
173.590, 1970.118
174.072, 1963.252
174.554, 2035.773
175.036, 2176.136
175.519, 2363.176
176.001, 2634.423
176.483, 2930.036
176.965, 3187.540
177.447, 3411.143
177.929, 3562.943
178.411, 3613.272
178.893, 3563.656
179.376, 3424.837
179.858, 3147.741
180.340, 2789.281
180.822, 2469.390
181.304, 2192.872
181.786, 1948.087
182.268, 1727.943
182.750, 1527.735
183.232, 1326.552
183.715, 1091.978
184.197, 844.279
184.679, 639.907
185.161, 487.351
185.643, 372.254
186.125, 277.771
186.607, 202.642
187.089, 137.807
187.572, 72.223
188.054, 8.856
188.536, 31.633
189.018, 41.338
189.500, 30.261
189.982, 17.486
190.464, 2.332
190.946, 6.149
191.428, 5.687
191.911, 35.803
192.393, 56.019
192.875, 56.806
193.357, 43.704
193.839, 36.326
194.321, 35.162
194.803, 36.834
195.285, 41.702
195.768, 50.041
196.250, 47.461
196.732, 27.108
197.214, 9.273
197.696, 19.753
198.178, 23.729
198.660, 46.645
199.142, 139.612
199.624, 227.088
200.107, 309.380
200.589, 370.905
201.071, 459.215
201.553, 536.785
202.035, 613.910
202.517, 705.977
202.999, 770.511
203.481, 860.865
203.964, 965.292
204.446, 1107.462
204.928, 1291.093
205.410, 1481.794
205.892, 1673.189
206.374, 1875.141
206.856, 2107.316
207.338, 2372.858
207.820, 2657.862
208.303, 2950.632
208.785, 3243.753
209.267, 3591.819
209.749, 4019.299
210.231, 4481.609
210.713, 4861.321
211.195, 5162.819
211.677, 5376.871
212.160, 5487.555
212.642, 5473.623
213.124, 5443.642
213.606, 5425.844
214.088, 5396.854
214.570, 5262.164
215.052, 5019.491
215.534, 4676.935
216.016, 4209.294
216.499, 3553.162
216.981, 2969.717
217.463, 2483.576
217.945, 2092.362
218.427, 1773.366
218.909, 1531.456
219.391, 1354.796
219.873, 1235.157
220.355, 1181.083
220.838, 1165.314
221.320, 1194.423
221.802, 1264.373
222.284, 1325.227
222.766, 1375.401
223.248, 1418.753
223.730, 1460.308
224.212, 1503.932
224.695, 1536.890
225.177, 1554.315
225.659, 1556.061
226.141, 1555.454
226.623, 1532.652
227.105, 1426.333
227.587, 1407.639
228.069, 1367.662
228.551, 1307.529
229.034, 1166.977
229.516, 1130.260
229.998, 1051.914
230.480, 971.849
230.962, 949.712
231.444, 820.785
231.926, 797.708
232.408, 732.367
232.891, 686.352
233.373, 598.451
233.855, 523.472
234.337, 454.915
234.819, 343.283
235.301, 262.323
235.783, 214.800
236.265, 193.985
236.747, 189.864
237.230, 188.595
237.712, 255.837
238.194, 345.773
238.676, 430.192
239.158, 509.387
239.640, 567.760
240.122, 653.016
240.604, 729.971
241.087, 813.578
241.569, 899.286
242.051, 981.654
242.533, 1067.815
243.015, 1168.726
243.497, 1282.210
243.979, 1414.152
244.461, 1571.069
244.943, 1765.925
245.426, 1940.871
245.908, 2073.413
246.390, 2193.525
246.872, 2370.111
247.354, 2646.546
247.836, 2914.675
248.318, 3155.152
248.800, 3412.914
249.283, 3505.917
249.765, 3403.729
250.247, 3149.262
250.729, 2814.338
251.211, 2340.356
251.693, 1883.443
252.175, 1497.500
252.657, 1185.741
253.139, 937.106
253.622, 763.709
254.104, 650.792
254.586, 564.997
255.068, 510.316
255.550, 476.848
256.032, 460.033
256.514, 471.803
256.996, 487.519
257.478, 501.413
257.961, 518.864
258.443, 550.420
258.925, 589.069
259.407, 654.443
259.889, 758.443
260.371, 914.155
260.853, 1070.108
261.335, 1219.761
261.818, 1371.771
262.300, 1549.853
262.782, 1784.615
263.264, 1986.308
263.746, 2125.111
264.228, 2213.472
264.710, 2182.057
265.192, 1999.353
265.674, 1711.190
266.157, 1430.608
266.639, 1150.792
267.121, 895.437
267.603, 676.035
268.085, 491.246
268.567, 342.310
269.049, 232.921
269.531, 155.717
270.013, 92.973
270.496, 46.401
270.978, 9.513
271.460, 20.392
271.942, 43.449
272.424, 59.740
272.906, 68.384
273.388, 70.982
273.871, 72.281
274.353, 73.946
274.835, 67.895
275.317, 46.139
275.799, 5.713
276.281, 25.319
276.763, 44.738
277.245, 59.175
277.727, 82.172
278.210, 113.726
278.692, 144.064
279.174, 166.566
279.656, 180.876
280.138, 201.607
280.620, 230.375
281.102, 265.286
281.584, 302.580
282.066, 341.804
282.549, 382.641
283.031, 424.436
283.513, 467.740
283.995, 515.080
284.477, 563.260
284.959, 620.856
285.441, 703.732
285.923, 812.509
286.405, 930.317
286.888, 1052.558
287.370, 1177.916
287.852, 1292.234
288.334, 1393.974
288.816, 1487.284
289.298, 1599.595
289.780, 1727.209
290.263, 1791.005
290.745, 1717.923
291.227, 1539.935
291.709, 1385.098
292.191, 1262.884
292.673, 1157.661
293.155, 1039.568
293.637, 913.664
294.119, 820.532
294.602, 797.558
295.084, 821.382
295.566, 823.879
296.048, 797.351
296.530, 775.415
297.012, 800.809
297.494, 866.180
297.976, 943.414
298.458, 1015.994
298.941, 1091.340
299.423, 1180.997
299.905, 1284.554
300.387, 1403.976
300.869, 1536.968
301.351, 1685.804
301.833, 1856.779
302.315, 2046.916
302.797, 2260.606
303.280, 2507.387
303.762, 2791.175
304.244, 3076.608
304.726, 3355.036
305.208, 3614.523
305.690, 3833.898
306.172, 4048.124
306.654, 4193.184
307.137, 4211.850
307.619, 4102.143
308.101, 3892.214
308.583, 3551.861
309.065, 3134.684
309.547, 2710.107
310.029, 2269.656
310.511, 1864.368
310.993, 1506.301
311.476, 1199.630
311.958, 978.502
312.440, 926.722
312.922, 947.710
313.404, 937.207
313.886, 828.182
314.368, 706.310
314.850, 613.536
315.333, 547.289
315.815, 486.434
316.297, 419.105
316.779, 354.264
317.261, 299.519
317.743, 250.856
318.225, 218.007
318.707, 215.193
319.190, 235.695
319.672, 246.433
320.154, 227.213
320.636, 200.992
321.118, 181.924
321.600, 167.423
322.082, 166.809
322.564, 188.692
323.046, 227.440
323.529, 263.750
324.011, 293.542
324.493, 320.450
324.975, 345.626
325.457, 362.296
325.939, 387.384
326.421, 439.927
326.903, 502.833
327.385, 532.864
327.868, 509.938
328.350, 468.810
328.832, 418.866
329.314, 352.965
329.796, 289.750
330.278, 225.657
330.760, 166.614
331.242, 121.449
331.724, 99.940
332.207, 79.934
332.689, 55.468
333.171, 27.229
333.653, 2.415
334.135, 42.340
334.617, 80.777
335.099, 99.234
335.582, 89.973
336.064, 77.762
336.546, 68.339
337.028, 61.666
337.510, 58.879
337.992, 62.322
338.474, 66.172
338.956, 62.724
339.438, 50.168
339.921, 39.646
340.403, 36.452
340.885, 38.435
341.367, 26.258
341.849, 3.550
342.331, 35.297
342.813, 51.512
343.295, 52.378
343.777, 56.969
344.260, 71.148
344.742, 90.800
345.224, 104.200
345.706, 111.114
346.188, 115.696
346.670, 109.453
347.152, 99.661
347.634, 117.879
348.116, 162.740
348.599, 186.872
349.081, 259.910
349.563, 321.089
350.045, 371.029
350.527, 376.088
351.009, 439.108
351.491, 478.904
351.973, 530.195
352.456, 594.030
352.938, 710.545
353.420, 864.217
353.902, 1007.116
354.384, 1131.585
354.866, 1224.284
355.348, 1260.495
355.830, 1230.746
356.312, 1197.239
356.795, 1220.997
357.277, 1271.315
357.759, 1297.328
358.241, 1267.965
358.723, 1213.002
359.205, 1150.970
359.687, 1082.846
360.169, 1003.023
360.652, 893.799
361.134, 777.038
361.616, 675.614
362.098, 600.370
362.580, 537.968
363.062, 481.321
363.544, 431.192
364.026, 396.497
364.509, 390.127
364.991, 393.669
365.473, 394.881
365.955, 374.991
366.437, 371.582
366.919, 396.297
367.401, 443.376
367.883, 489.750
368.365, 547.687
368.848, 593.684
369.330, 616.297
369.812, 595.683
370.294, 586.668
370.776, 595.209
371.258, 613.819
371.740, 626.740
372.222, 623.177
372.704, 630.046
373.187, 657.409
373.669, 708.805
374.151, 763.643
374.633, 823.200
375.115, 883.728
375.597, 940.186
376.079, 989.797
376.561, 1042.595
377.043, 1098.954
377.526, 1158.148
378.008, 1236.262
378.490, 1335.001
378.972, 1448.458
379.454, 1568.455
379.936, 1694.092
380.418, 1834.086
380.901, 1985.893
381.383, 2157.960
381.865, 2386.711
382.347, 2669.837
382.829, 2971.501
383.311, 3248.227
383.793, 3516.729
384.275, 3831.066
384.757, 4221.955
385.240, 4616.219
385.722, 4973.408
386.204, 5273.016
386.686, 5408.991
387.168, 5273.423
387.650, 4962.378
388.132, 4564.575
388.614, 4076.148
389.096, 3614.394
389.579, 3252.917
390.061, 2988.818
390.543, 2821.689
391.025, 2769.490
391.507, 2794.237
391.989, 2890.057
392.471, 3053.687
392.953, 3223.751
393.435, 3365.441
393.918, 3504.119
394.400, 3663.021
394.882, 3840.408
395.364, 4044.751
395.846, 4280.250
396.328, 4546.497
396.810, 4831.643
397.292, 5122.694
397.775, 5440.830
398.257, 5799.022
398.739, 6215.308
399.221, 6638.886
399.703, 7072.194
400.185, 7510.697
400.667, 7952.936
401.149, 8457.249
401.632, 8891.297
402.114, 9216.403
402.596, 9428.409
403.078, 9545.704
403.560, 9530.265
404.042, 9463.305
404.524, 9465.116
405.006, 9592.396
405.488, 9597.045
405.971, 9437.875
406.453, 9108.911
406.935, 8550.388
407.417, 7720.722
407.899, 6810.870
408.381, 5919.497
408.863, 5051.371
409.345, 4307.808
409.828, 3717.322
410.310, 3250.240
410.792, 2876.717
411.274, 2591.387
411.756, 2370.138
412.238, 2207.361
412.720, 2094.157
413.202, 2013.972
413.684, 1919.273
414.167, 1873.690
414.649, 1816.168
415.131, 1747.381
415.613, 1633.514
416.095, 1577.854
416.577, 1498.866
417.059, 1418.915
417.541, 1371.423
418.023, 1264.108
418.506, 1216.111
418.988, 1144.437
419.470, 1083.598
419.952, 999.270
420.434, 922.203
420.916, 868.615
421.398, 775.919
421.880, 697.051
422.362, 631.108
422.845, 577.904
423.327, 537.387
423.809, 516.198
424.291, 494.724
424.773, 468.763
425.255, 442.439
425.737, 422.449
426.220, 421.607
426.702, 409.819
427.184, 375.803
427.666, 317.319
428.148, 273.360
428.630, 250.772
429.112, 233.151
429.594, 203.945
430.076, 158.022
430.559, 121.688
431.041, 100.202
431.523, 89.485
432.005, 79.615
432.487, 71.197
432.969, 58.929
433.451, 32.956
433.933, 2.684
434.415, 17.365
434.898, 5.284
435.380, 13.941
435.862, 9.933
436.344, 10.815
436.826, 22.177
437.308, 3.614
437.790, 38.781
438.272, 37.297
438.754, 0.642
439.237, 38.912
439.719, 63.589
440.201, 75.346
440.683, 75.656
441.165, 57.969
441.647, 38.843
442.129, 26.799
442.612, 21.161
443.094, 19.015
443.576, 28.963
444.058, 34.821
444.540, 32.900
445.022, 31.305
445.504, 6.562
445.986, 15.299
446.468, 44.649
446.951, 85.922
447.433, 124.297
447.915, 159.932
448.397, 184.627
448.879, 224.111
449.361, 258.768
449.843, 293.474
450.325, 336.398
450.807, 365.190
451.290, 408.720
451.772, 446.743
452.254, 487.550
452.736, 521.183
453.218, 565.266
453.700, 641.072
454.182, 717.193
454.664, 786.600
455.147, 846.845
455.629, 880.508
456.111, 885.237
456.593, 867.299
457.075, 833.036
457.557, 787.369
458.039, 731.350
458.521, 664.896
459.003, 588.894
459.486, 496.861
459.968, 394.020
460.450, 302.372
460.932, 240.863
461.414, 195.459
461.896, 153.178
462.378, 111.566
462.860, 76.151
463.342, 51.323
463.825, 34.463
464.307, 22.143
464.789, 9.675
465.271, 4.945
465.753, 16.662
466.235, 45.531
466.717, 61.874
467.199, 41.979
467.681, 22.744
468.164, 28.179
468.646, 83.797
469.128, 121.473
469.610, 129.146
470.092, 119.914
470.574, 126.897
471.056, 154.148
471.539, 187.282
472.021, 223.258
472.503, 262.478
472.985, 292.866
473.467, 314.214
473.949, 327.249
474.431, 330.310
474.913, 324.341
475.395, 315.972
475.878, 301.592
476.360, 292.247
476.842, 315.240
477.324, 366.205
477.806, 413.620
478.288, 428.990
478.770, 433.144
479.252, 454.283
479.734, 468.253
480.217, 509.309
480.699, 543.781
481.181, 572.029
481.663, 575.411
482.145, 610.900
482.627, 633.513
483.109, 655.598
483.591, 695.590
484.073, 702.571
484.556, 742.275
485.038, 768.918
485.520, 801.530
486.002, 821.194
486.484, 844.852
486.966, 881.458
487.448, 896.488
487.931, 903.247
488.413, 960.769
488.895, 1012.087
489.377, 1039.032
489.859, 1043.773
490.341, 1062.796
490.823, 1099.212
491.305, 1140.998
491.787, 1176.591
492.270, 1206.169
492.752, 1251.307
493.234, 1322.058
493.716, 1392.321
494.198, 1420.146
494.680, 1410.123
495.162, 1386.387
495.644, 1359.709
496.126, 1323.819
496.609, 1270.009
497.091, 1195.150
497.573, 1107.162
498.055, 1003.208
498.537, 892.130
499.019, 783.810
499.501, 679.726
499.983, 578.449
500.466, 468.735
500.948, 360.030
501.430, 274.001
501.912, 231.112
502.394, 199.074
502.876, 166.865
503.358, 134.655
503.840, 107.777
504.322, 90.512
504.805, 74.762
505.287, 52.363
505.769, 17.856
506.251, 8.070
506.733, 21.410
507.215, 25.825
507.697, 30.866
508.179, 36.816
508.661, 41.732
509.144, 45.569
509.626, 47.769
510.108, 42.944
510.590, 29.980
511.072, 19.023
511.554, 20.301
512.036, 31.321
512.518, 49.417
513.000, 88.725
513.483, 112.915
513.965, 71.073
514.447, 17.051
514.929, 91.243
515.411, 109.059
515.893, 112.331
516.375, 125.583
516.857, 151.924
517.340, 184.407
517.822, 210.632
518.304, 247.382
518.786, 309.846
519.268, 350.995
519.750, 374.680
520.232, 428.231
520.714, 474.557
521.196, 514.038
521.679, 526.051
522.161, 573.169
522.643, 608.817
523.125, 671.759
523.607, 718.130
524.089, 745.303
524.571, 764.053
525.054, 787.309
525.536, 813.445
526.018, 833.413
526.500, 842.417
526.982, 847.929
527.464, 857.323
527.946, 871.948
528.428, 897.854
528.910, 947.372
529.393, 1004.420
529.875, 1050.542
530.357, 1083.334
530.839, 1127.311
531.321, 1205.648
531.803, 1295.735
532.285, 1377.181
532.767, 1447.613
533.250, 1505.051
533.732, 1544.302
534.214, 1570.343
534.696, 1595.840
535.178, 1632.393
535.660, 1655.312
536.142, 1656.838
536.624, 1636.107
537.106, 1606.624
537.589, 1569.403
538.071, 1520.683
538.553, 1455.419
539.035, 1372.604
539.517, 1284.507
539.999, 1191.985
540.481, 1096.440
540.963, 995.809
541.445, 894.031
541.928, 805.589
542.410, 746.752
542.892, 701.993
543.374, 648.729
543.856, 587.267
544.338, 530.814
544.820, 490.509
545.302, 458.435
545.784, 427.394
546.267, 393.797
546.749, 365.046
547.231, 340.527
547.713, 323.141
548.195, 317.433
548.677, 352.297
549.159, 367.304
549.641, 339.526
550.124, 274.378
550.606, 237.924
551.088, 236.933
551.570, 252.667
552.052, 278.359
552.534, 316.334
553.016, 343.986
553.498, 357.462
553.981, 369.909
554.463, 402.017
554.945, 450.636
555.427, 495.014
555.909, 524.941
556.391, 551.774
556.873, 594.414
557.355, 649.628
557.838, 702.891
558.320, 740.084
558.802, 775.153
559.284, 824.470
559.766, 892.195
560.248, 950.430
560.730, 982.065
561.212, 1001.040
561.694, 1020.122
562.177, 1058.135
562.659, 1075.101
563.141, 1051.200
563.623, 1006.151
564.105, 988.637
564.587, 1011.525
565.069, 1036.753
565.551, 1054.678
566.033, 1064.688
566.516, 1057.861
566.998, 1031.684
567.480, 999.983
567.962, 971.479
568.444, 947.472
568.926, 934.551
569.408, 936.852
569.890, 934.455
570.372, 894.754
570.855, 830.954
571.337, 779.582
571.819, 775.812
572.301, 782.750
572.783, 769.337
573.265, 738.599
573.747, 706.878
574.229, 668.863
574.711, 640.167
575.194, 631.148
575.676, 651.809
576.158, 664.190
576.640, 664.930
577.122, 659.060
577.604, 650.073
578.086, 634.287
578.568, 625.351
579.051, 626.699
579.533, 634.391
580.015, 640.857
580.497, 646.570
580.979, 643.168
581.461, 615.010
581.943, 576.349
582.425, 570.487
582.907, 596.433
583.390, 623.307
583.872, 617.476
584.354, 601.350
584.836, 604.473
585.318, 635.067
585.800, 670.942
586.282, 706.203
586.765, 737.860
587.247, 762.021
587.729, 761.044
588.211, 770.769
588.693, 808.849
589.175, 866.963
589.657, 905.336
590.139, 914.024
590.621, 919.527
591.104, 936.041
591.586, 965.365
592.068, 974.162
592.550, 958.658
593.032, 937.348
593.514, 936.355
593.996, 948.297
594.478, 933.724
594.960, 877.566
595.443, 813.165
595.925, 786.038
596.407, 782.381
596.889, 770.479
597.371, 722.778
597.853, 673.618
598.335, 647.996
598.817, 642.725
599.299, 632.291
599.782, 609.080
600.264, 578.449
600.746, 540.376
601.228, 487.312
601.710, 450.483
602.192, 433.359
602.674, 429.177
603.156, 435.535
603.638, 456.625
604.121, 463.804
604.603, 448.973
605.085, 423.998
605.567, 412.862
606.049, 414.263
606.531, 415.276
607.013, 409.619
607.495, 400.095
607.978, 389.194
608.460, 377.373
608.942, 368.148
609.424, 360.611
609.906, 358.409
610.388, 368.373
610.870, 397.856
611.352, 413.843
611.834, 394.524
612.317, 363.564
612.799, 345.429
613.281, 350.501
613.763, 353.237
614.245, 353.432
614.727, 349.348
615.209, 334.404
615.692, 306.318
616.174, 280.385
616.656, 262.978
617.138, 251.958
617.620, 240.480
618.102, 228.510
618.584, 212.465
619.066, 183.899
619.549, 152.029
620.031, 132.559
620.513, 128.877
620.995, 124.322
621.477, 102.606
621.959, 76.752
622.441, 60.692
622.923, 56.400
623.405, 36.726
623.888, 51.278
624.370, 57.540
624.852, 55.958
625.334, 22.992
625.816, 30.586
626.298, 21.943
626.780, 12.641
627.262, 25.970
627.744, 2.375
628.227, 8.396
628.709, 9.206
629.191, 7.236
629.673, 16.576
630.155, 16.910
630.637, 19.634
631.119, 40.952
631.601, 68.628
632.083, 85.597
632.566, 83.872
633.048, 77.836
633.530, 71.746
634.012, 66.038
634.494, 61.440
634.976, 63.120
635.458, 59.953
635.940, 47.122
636.422, 27.259
636.905, 14.146
637.387, 9.052
637.869, 7.942
638.351, 11.033
638.833, 17.541
639.315, 17.328
639.797, 9.721
640.279, 2.947
640.762, 9.919
641.244, 21.936
641.726, 21.942
642.208, 25.422
642.690, 17.256
643.172, 48.724
643.654, 69.592
644.136, 48.093
644.619, 81.305
645.101, 92.591
645.583, 114.740
646.065, 120.195
646.547, 127.518
647.029, 136.788
647.511, 147.381
647.993, 157.125
648.476, 166.968
648.958, 189.441
649.440, 225.797
649.922, 265.113
650.404, 298.259
650.886, 327.324
651.368, 361.188
651.850, 400.807
652.332, 436.401
652.815, 460.354
653.297, 475.270
653.779, 484.900
654.261, 490.819
654.743, 490.442
655.225, 480.508
655.707, 464.292
656.189, 446.838
656.671, 418.477
657.154, 401.888
657.636, 401.033
658.118, 414.316
658.600, 439.500
659.082, 480.841
659.564, 515.559
660.046, 528.377
660.528, 525.457
661.010, 533.646
661.493, 553.005
661.975, 580.702
662.457, 611.025
662.939, 650.243
663.421, 706.856
663.903, 782.430
664.385, 873.238
664.867, 968.565
665.349, 1083.170
665.832, 1230.221
666.314, 1464.684
666.796, 1663.306
667.278, 1798.097
667.760, 1903.916
668.242, 2035.054
668.724, 2189.853
669.206, 2371.403
669.689, 2579.896
670.171, 2812.914
670.653, 3059.415
671.135, 3321.043
671.617, 3608.796
672.099, 3933.500
672.581, 4288.017
673.063, 4660.167
673.545, 5045.932
674.028, 5470.117
674.510, 5961.696
674.992, 6487.411
675.474, 7010.360
675.956, 7511.636
676.438, 8082.240
676.920, 8763.281
677.403, 9492.769
677.885, 10228.530
678.367, 10942.181
678.849, 11742.637
679.331, 12649.749
679.813, 13613.104
680.295, 14557.722
680.777, 15483.052
681.259, 16369.166
681.742, 17244.467
682.224, 17994.471
682.706, 18497.795
683.188, 18741.947
683.670, 18678.795
684.152, 18233.910
684.634, 17519.156
685.116, 16548.781
685.599, 15334.033
686.081, 14066.854
686.563, 12653.075
687.045, 11297.919
687.527, 10068.132
688.009, 8952.123
688.491, 7984.082
688.973, 7172.798
689.455, 6509.851
689.938, 6077.818
690.420, 5827.791
690.902, 5441.516
691.384, 4863.758
691.866, 4290.058
692.348, 3919.464
692.830, 3684.528
693.312, 3473.494
693.794, 3257.395
694.277, 3061.642
694.759, 2902.032
695.241, 2767.926
695.723, 2642.675
696.205, 2522.103
696.687, 2410.566
697.169, 2312.878
697.651, 2224.178
698.133, 2121.328
698.616, 1997.532
699.098, 1893.448
699.580, 1836.332
700.062, 1809.216
700.544, 1764.528
701.026, 1702.298
701.508, 1634.734
701.990, 1569.127
702.473, 1502.895
702.955, 1433.080
703.437, 1359.317
703.919, 1284.379
704.401, 1203.031
704.883, 1125.639
705.365, 1060.350
705.847, 1006.087
706.330, 966.512
706.812, 951.688
707.294, 938.280
707.776, 896.996
708.258, 827.419
708.740, 767.457
709.222, 722.854
709.704, 690.296
710.187, 665.635
710.669, 646.914
711.151, 629.509
711.633, 610.212
712.115, 594.019
712.597, 586.912
713.079, 584.897
713.561, 579.954
714.043, 568.717
714.526, 556.190
715.008, 542.118
715.490, 527.306
715.972, 517.894
716.454, 514.864
716.936, 513.774
717.418, 516.529
717.900, 519.839
718.382, 503.765
718.865, 468.692
719.347, 433.420
719.829, 414.677
720.311, 400.900
720.793, 375.081
721.275, 334.160
721.757, 298.702
722.239, 284.456
722.721, 277.271
723.204, 268.631
723.686, 250.656
724.168, 236.163
724.650, 229.272
725.132, 227.532
725.614, 229.399
726.096, 235.593
726.578, 235.916
727.060, 228.575
727.543, 216.113
728.025, 203.299
728.507, 189.517
728.989, 171.269
729.471, 142.606
729.953, 115.960
730.435, 98.104
730.917, 88.983
731.400, 88.601
731.882, 101.502
732.364, 118.537
732.846, 144.859
733.328, 174.399
733.810, 179.765
734.292, 153.966
734.774, 127.170
735.256, 109.803
735.739, 101.507
736.221, 103.694
736.703, 114.862
737.185, 124.688
737.667, 126.433
738.149, 124.023
738.631, 123.070
739.114, 123.657
739.596, 117.916
740.078, 89.333
740.560, 64.645
741.042, 64.419
741.524, 98.035
742.006, 113.805
742.488, 105.951
742.970, 91.200
743.453, 78.740
743.935, 69.130
744.417, 76.500
744.899, 103.101
745.381, 137.650
745.863, 181.750
746.345, 223.537
746.827, 236.462
747.309, 201.802
747.792, 166.237
748.274, 158.836
748.756, 162.423
749.238, 153.672
749.720, 109.061
750.202, 85.954
750.684, 100.397
751.166, 128.551
751.648, 121.584
752.131, 76.575
752.613, 53.420
753.095, 79.240
753.577, 117.501
754.059, 96.342
754.541, 36.943
755.023, 1.144
755.505, 30.378
755.988, 71.917
756.470, 90.680
756.952, 91.502
757.434, 93.003
757.916, 97.418
758.398, 103.706
758.880, 112.968
759.362, 124.186
759.844, 130.980
760.327, 133.306
760.809, 132.796
761.291, 132.742
761.773, 130.316
762.255, 115.194
762.737, 89.146
763.219, 64.773
763.701, 44.853
764.184, 34.270
764.666, 45.333
765.148, 81.967
765.630, 93.851
766.112, 44.051
766.594, 6.795
767.076, 28.801
767.558, 18.432
768.041, 6.033
768.523, 9.831
769.005, 20.747
769.487, 9.922
769.969, 11.454
770.451, 8.351
770.933, 24.603
771.415, 59.999
771.898, 86.403
772.380, 100.341
772.862, 96.618
773.344, 64.835
773.826, 37.513
774.308, 19.080
774.790, 6.933
775.272, 0.791
775.754, 3.561
776.237, 1.910
776.719, 19.684
777.201, 38.346
777.683, 43.116
778.165, 36.000
778.647, 19.503
779.129, 13.844
779.611, 35.770
780.093, 3.621
780.576, 48.066
781.058, 69.436
781.540, 12.363
782.022, 30.046
782.504, 46.056
782.986, 42.356
783.468, 25.476
783.950, 9.413
784.432, 29.673
784.915, 24.580
785.397, 6.510
785.879, 2.634
786.361, 6.028
786.843, 14.288
787.325, 41.822
787.807, 65.696
788.289, 68.797
788.771, 56.186
789.254, 40.397
789.736, 16.787
790.218, 1.185
790.700, 10.151
791.182, 11.761
791.664, 10.291
792.146, 5.260
792.628, 1.611
793.111, 3.318
793.593, 6.004
794.075, 0.992
794.557, 10.744
795.039, 25.421
795.521, 54.568
796.003, 74.085
796.485, 60.215
796.968, 19.027
797.450, 6.410
797.932, 4.177
798.414, 4.084
798.896, 13.807
799.378, 24.278
799.860, 29.002
800.342, 27.607
800.825, 26.258
801.307, 31.492
801.789, 37.704
802.271, 35.685
802.753, 25.825
803.235, 11.818
803.717, 16.220
804.199, 37.530
804.681, 37.993
805.164, 15.547
805.646, 2.117
806.128, 11.622
806.610, 22.326
807.092, 43.175
807.574, 71.354
808.056, 71.784
808.538, 44.658
809.020, 23.387
809.503, 41.169
809.985, 73.317
810.467, 91.359
810.949, 93.627
811.431, 88.717
811.913, 69.773
812.395, 53.544
812.877, 49.773
813.359, 59.352
813.842, 71.530
814.324, 88.142
814.806, 102.327
815.288, 109.997
815.770, 111.472
816.252, 105.645
816.734, 92.643
817.216, 83.273
817.698, 91.308
818.181, 102.871
818.663, 102.860
819.145, 87.565
819.627, 80.807
820.109, 104.017
820.591, 121.708
821.073, 113.320
821.555, 75.228
822.038, 46.245
822.520, 26.103
823.002, 17.155
823.484, 29.873
823.966, 53.388
824.448, 63.652
824.930, 57.650
825.412, 51.923
825.895, 52.448
826.377, 58.442
826.859, 72.245
827.341, 99.272
827.823, 110.995
828.305, 101.993
828.787, 87.650
829.269, 77.929
829.752, 73.628
830.234, 62.979
830.716, 45.127
831.198, 35.220
831.680, 52.103
832.162, 81.185
832.644, 109.319
833.126, 135.993
833.609, 147.525
834.091, 125.353
834.573, 96.846
835.055, 78.823
835.537, 73.476
836.019, 73.008
836.501, 80.388
836.983, 85.499
837.465, 72.168
837.948, 48.881
838.430, 44.458
838.912, 61.974
839.394, 78.702
839.876, 59.983
840.358, 38.338
840.840, 45.143
841.322, 91.322
841.804, 120.403
842.287, 123.716
842.769, 116.868
843.251, 104.154
843.733, 84.890
844.215, 85.770
844.697, 108.083
845.179, 125.798
845.661, 108.405
846.143, 78.862
846.626, 65.596
847.108, 70.896
847.590, 84.624
848.072, 120.125
848.554, 146.735
849.036, 145.775
849.518, 115.061
850.000, 87.608
850.482, 61.954
850.965, 43.699
851.447, 40.232
851.929, 47.541
852.411, 51.353
852.893, 51.781
853.375, 55.975
853.857, 74.469
854.339, 93.558
854.822, 104.581
855.304, 106.084
855.786, 99.984
856.268, 78.740
856.750, 63.160
857.232, 65.678
857.714, 82.968
858.196, 88.324
858.679, 81.873
859.161, 76.148
859.643, 81.567
860.125, 90.332
860.607, 94.370
861.089, 93.486
861.571, 88.935
862.053, 76.808
862.536, 67.731
863.018, 67.695
863.500, 75.105
863.982, 78.651
864.464, 77.221
864.946, 77.988
865.428, 87.306
865.910, 98.888
866.392, 100.343
866.875, 93.008
867.357, 82.761
867.839, 66.638
868.321, 53.950
868.803, 53.210
869.285, 60.988
869.767, 60.251
870.249, 45.351
870.731, 35.759
871.214, 38.464
871.696, 48.812
872.178, 56.724
872.660, 61.995
873.142, 63.935
873.624, 59.189
874.106, 54.348
874.588, 55.921
875.070, 60.859
875.553, 62.395
876.035, 52.597
876.517, 48.191
876.999, 55.042
877.481, 65.008
877.963, 59.190
878.445, 38.154
878.927, 23.076
879.409, 19.648
879.892, 23.871
880.374, 39.472
880.856, 57.560
881.338, 63.368
881.820, 36.789
882.302, 18.973
882.784, 25.458
883.266, 40.247
883.749, 46.794
884.231, 45.635
884.713, 28.539
885.195, 10.831
885.677, 46.380
886.159, 40.684
886.641, 9.626
887.123, 17.379
887.606, 32.490
888.088, 48.438
888.570, 84.533
889.052, 114.662
889.534, 113.198
890.016, 62.712
890.498, 39.291
890.980, 49.491
891.463, 67.288
891.945, 63.469
892.427, 48.695
892.909, 55.149
893.391, 85.783
893.873, 116.206
894.355, 136.833
894.837, 146.168
895.319, 138.673
895.802, 109.781
896.284, 97.911
896.766, 108.634
897.248, 122.486
897.730, 129.798
898.212, 131.586
898.694, 128.578
899.176, 121.532
899.659, 112.022
900.141, 98.258
900.623, 84.422
901.105, 70.541
901.587, 58.583
902.069, 61.327
902.551, 94.586
903.033, 116.298
903.515, 108.045
903.998, 82.834
904.480, 80.071
904.962, 99.605
905.444, 137.265
905.926, 133.894
906.408, 161.051
906.890, 179.033
907.372, 188.367
907.854, 168.771
908.337, 186.760
908.819, 190.307
909.301, 193.130
909.783, 216.511
910.265, 215.660
910.747, 230.307
911.229, 244.423
911.711, 243.711
912.193, 242.856
912.676, 260.747
913.158, 287.738
913.640, 310.525
914.122, 329.119
914.604, 335.519
915.086, 320.282
915.568, 300.110
916.050, 293.484
916.533, 302.074
917.015, 289.660
917.497, 251.791
917.979, 215.158
918.461, 205.692
918.943, 211.082
919.425, 216.732
919.907, 220.922
920.390, 225.956
920.872, 240.653
921.354, 248.117
921.836, 237.942
922.318, 210.538
922.800, 189.993
923.282, 176.229
923.764, 168.116
924.247, 162.657
924.729, 163.362
925.211, 179.071
925.693, 206.303
926.175, 230.716
926.657, 257.458
927.139, 267.408
927.621, 246.002
928.103, 206.173
928.586, 191.329
929.068, 204.333
929.550, 209.179
930.032, 191.886
930.514, 166.433
930.996, 149.497
931.478, 139.364
931.960, 132.265
932.442, 121.946
932.925, 121.851
933.407, 140.987
933.889, 167.835
934.371, 192.873
934.853, 218.011
935.335, 224.526
935.817, 208.409
936.299, 184.766
936.781, 162.807
937.264, 147.026
937.746, 146.868
938.228, 166.929
938.710, 182.326
939.192, 183.298
939.674, 178.271
940.156, 171.554
940.638, 163.383
941.120, 150.555
941.603, 131.688
942.085, 126.019
942.567, 164.498
943.049, 212.291
943.531, 221.918
944.013, 199.584
944.495, 171.037
944.977, 126.891
945.460, 96.403
945.942, 91.415
946.424, 104.576
946.906, 115.563
947.388, 124.617
947.870, 125.664
948.352, 114.883
948.834, 99.329
949.317, 84.956
949.799, 72.190
950.281, 61.812
950.763, 53.400
951.245, 48.649
951.727, 45.600
952.209, 47.762
952.691, 50.331
953.174, 52.991
953.656, 30.836
954.138, 52.163
954.620, 62.932
955.102, 63.710
955.584, 24.581
956.066, 36.970
956.548, 33.462
957.030, 24.285
957.513, 31.208
957.995, 37.185
958.477, 32.598
958.959, 20.140
959.441, 22.000
959.923, 36.769
960.405, 44.599
960.887, 29.643
961.369, 6.410
961.852, 18.472
962.334, 41.796
962.816, 53.511
963.298, 49.288
963.780, 36.900
964.262, 12.175
964.744, 13.709
965.226, 18.089
965.708, 4.913
966.191, 4.060
966.673, 2.878
967.155, 0.345
967.637, 2.650
968.119, 7.229
968.601, 11.444
969.083, 14.784
969.565, 18.130
970.048, 21.730
970.530, 24.674
971.012, 27.797
971.494, 29.621
971.976, 22.920
972.458, 8.410
972.940, 3.724
973.422, 0.651
973.904, 0.155
974.387, 12.723
974.869, 37.257
975.351, 62.140
975.833, 87.502
976.315, 112.062
976.797, 135.967
977.279, 158.480
977.761, 178.259
978.244, 195.380
978.726, 209.706
979.208, 215.580
979.690, 227.379
980.172, 249.939
980.654, 281.071
981.136, 321.130
981.618, 372.728
982.101, 407.968
982.583, 421.984
983.065, 444.839
983.547, 523.714
984.029, 618.003
984.511, 667.742
984.993, 668.362
985.475, 680.443
985.958, 728.085
986.440, 785.015
986.922, 849.085
987.404, 914.705
987.886, 943.179
988.368, 936.909
988.850, 956.724
989.332, 1051.474
989.814, 1153.471
990.297, 1201.595
990.779, 1214.098
991.261, 1223.719
991.743, 1241.829
992.225, 1246.271
992.707, 1226.541
993.189, 1208.846
993.671, 1236.580
994.153, 1294.280
994.636, 1316.367
995.118, 1293.512
995.600, 1270.622
996.082, 1273.559
996.564, 1290.915
997.046, 1320.091
997.528, 1360.441
998.010, 1382.567
998.492, 1377.722
998.975, 1390.664
999.457, 1457.786
999.939, 1542.716
1000.421, 1579.356
1000.903, 1577.256
1001.385, 1563.071
1001.867, 1533.701
1002.349, 1510.920
1002.832, 1503.428
1003.314, 1503.779
1003.796, 1507.742
1004.278, 1516.563
1004.760, 1497.930
1005.242, 1444.834
1005.724, 1389.070
1006.206, 1366.786
1006.688, 1356.873
1007.171, 1331.955
1007.653, 1285.448
1008.135, 1261.604
1008.617, 1281.407
1009.099, 1295.333
1009.581, 1272.400
1010.063, 1229.446
1010.545, 1241.547
1011.028, 1299.316
1011.510, 1343.804
1011.992, 1315.754
1012.474, 1297.633
1012.956, 1352.509
1013.438, 1444.410
1013.920, 1508.944
1014.402, 1531.486
1014.884, 1566.525
1015.367, 1624.010
1015.849, 1678.375
1016.331, 1696.031
1016.813, 1691.106
1017.295, 1694.905
1017.777, 1712.788
1018.259, 1703.850
1018.741, 1624.460
1019.224, 1541.744
1019.706, 1491.117
1020.188, 1463.984
1020.670, 1392.982
1021.152, 1280.631
1021.634, 1185.885
1022.116, 1150.183
1022.598, 1127.004
1023.080, 1069.036
1023.563, 991.137
1024.045, 921.227
1024.527, 880.299
1025.009, 819.046
1025.491, 725.221
1025.973, 629.181
1026.455, 570.741
1026.937, 537.990
1027.420, 493.234
1027.902, 433.379
1028.384, 372.660
1028.866, 318.771
1029.348, 266.840
1029.830, 209.586
1030.312, 151.440
1030.794, 120.959
1031.276, 120.344
1031.759, 118.875
1032.241, 102.350
1032.723, 87.388
1033.205, 80.629
1033.687, 61.921
1034.169, 64.598
1034.651, 62.102
1035.133, 54.713
1035.615, 27.727
1036.098, 26.071
1036.580, 14.292
1037.062, 7.554
1037.544, 3.805
1038.026, 14.722
1038.508, 27.710
1038.990, 27.933
1039.472, 33.336
1039.955, 68.390
1040.437, 120.314
1040.919, 125.941
1041.401, 72.746
1041.883, 35.684
1042.365, 36.756
1042.847, 53.378
1043.329, 62.313
1043.812, 62.116
1044.294, 46.169
1044.776, 0.751
1045.258, 20.028
1045.740, 7.415
1046.222, 42.898
1046.704, 63.763
1047.186, 71.089
1047.668, 67.375
1048.151, 54.662
1048.633, 52.117
1049.115, 78.186
1049.597, 110.750
1050.079, 138.303
1050.561, 161.479
1051.043, 182.419
1051.525, 199.043
1052.007, 219.822
1052.490, 243.856
1052.972, 278.517
1053.454, 301.074
1053.936, 349.071
1054.418, 390.911
1054.900, 426.950
1055.382, 439.685
1055.864, 482.559
1056.347, 513.466
1056.829, 550.284
1057.311, 577.746
1057.793, 573.141
1058.275, 540.947
1058.757, 509.064
1059.239, 496.235
1059.721, 477.861
1060.203, 431.590
1060.686, 374.521
1061.168, 324.618
1061.650, 269.261
1062.132, 230.944
1062.614, 217.556
1063.096, 198.152
1063.578, 173.044
1064.060, 125.100
1064.542, 106.706
1065.025, 76.450
1065.507, 45.789
1065.989, 25.104
1066.471, 10.369
1066.953, 3.468
1067.435, 20.796
1067.917, 4.936
1068.399, 40.286
1068.882, 69.807
1069.364, 71.288
1069.846, 64.010
1070.328, 53.262
1070.810, 43.356
1071.292, 37.395
1071.774, 35.419
1072.256, 41.427
1072.739, 57.146
1073.221, 59.338
1073.703, 18.487
1074.185, 27.984
1074.667, 33.951
1075.149, 14.265
1075.631, 2.507
1076.113, 5.579
1076.595, 18.053
1077.078, 40.596
1077.560, 71.324
1078.042, 112.102
1078.524, 158.958
1079.006, 204.672
1079.488, 248.631
1079.970, 279.068
1080.452, 253.463
1080.935, 255.431
1081.417, 326.183
1081.899, 445.964
1082.381, 558.175
1082.863, 663.776
1083.345, 761.838
1083.827, 846.719
1084.309, 939.960
1084.792, 1063.590
1085.274, 1203.302
1085.756, 1342.338
1086.238, 1474.988
1086.720, 1627.983
1087.202, 1802.959
1087.684, 1990.651
1088.166, 2184.027
1088.648, 2388.188
1089.130, 2607.077
1089.613, 2842.020
1090.095, 3094.430
1090.577, 3370.828
1091.059, 3658.196
1091.541, 3955.218
1092.023, 4261.585
1092.505, 4567.481
1092.987, 4880.409
1093.470, 5243.276
1093.952, 5659.431
1094.434, 6108.964
1094.916, 6468.425
1095.398, 6982.355
1095.880, 7991.363
1096.362, 9235.463
1096.844, 9677.201
1097.327, 9308.774
1097.809, 8972.765
1098.291, 8907.518
1098.773, 8918.140
1099.255, 8858.810
1099.737, 8742.189
1100.219, 8588.682
1100.701, 8413.273
1101.183, 8126.129
1101.666, 7703.098
1102.148, 7249.401
1102.630, 6807.367
1103.112, 6376.565
1103.594, 5972.342
1104.076, 5586.521
1104.558, 5215.397
1105.040, 4838.552
1105.522, 4500.731
1106.005, 4218.617
1106.487, 3959.697
1106.969, 3692.963
1107.451, 3420.817
1107.933, 3174.398
1108.415, 2951.020
1108.897, 2733.829
1109.379, 2497.120
1109.862, 2279.269
1110.344, 2096.074
1110.826, 1942.126
1111.308, 1818.521
1111.790, 1723.190
1112.272, 1594.270
1112.754, 1410.382
1113.236, 1239.142
1113.719, 1157.072
1114.201, 1107.976
1114.683, 1035.071
1115.165, 932.240
1115.647, 863.508
1116.129, 834.738
1116.611, 807.366
1117.093, 765.083
1117.575, 714.289
1118.057, 649.139
1118.540, 586.403
1119.022, 557.071
1119.504, 602.724
1119.986, 615.395
1120.468, 578.494
1120.950, 536.249
1121.432, 525.432
1121.914, 535.395
1122.397, 535.538
1122.879, 528.135
1123.361, 524.813
1123.843, 528.196
1124.325, 541.257
1124.807, 575.970
1125.289, 609.453
1125.771, 598.650
1126.254, 551.588
1126.736, 532.524
1127.218, 549.416
1127.700, 579.788
1128.182, 619.547
1128.664, 656.786
1129.146, 682.810
1129.628, 699.778
1130.110, 714.198
1130.593, 725.327
1131.075, 740.514
1131.557, 762.167
1132.039, 790.534
1132.521, 833.524
1133.003, 879.115
1133.485, 911.996
1133.967, 928.833
1134.449, 959.689
1134.932, 1010.273
1135.414, 1046.715
1135.896, 1042.765
1136.378, 1029.783
1136.860, 1058.236
1137.342, 1108.928
1137.824, 1148.248
1138.306, 1153.469
1138.789, 1174.675
1139.271, 1221.876
1139.753, 1260.960
1140.235, 1258.071
1140.717, 1228.636
1141.199, 1204.081
1141.681, 1184.378
1142.163, 1166.266
1142.646, 1159.188
1143.128, 1137.574
1143.610, 1092.981
1144.092, 1038.870
1144.574, 992.531
1145.056, 952.177
1145.538, 910.911
1146.020, 869.407
1146.502, 824.354
1146.985, 770.471
1147.467, 716.119
1147.949, 667.650
1148.431, 620.679
1148.913, 560.740
1149.395, 491.122
1149.877, 436.141
1150.359, 401.460
1150.842, 376.787
1151.324, 361.339
1151.806, 349.915
1152.288, 341.979
1152.770, 335.291
1153.252, 302.193
1153.734, 242.171
1154.216, 194.190
1154.698, 173.651
1155.181, 169.664
1155.663, 187.874
1156.145, 208.634
1156.627, 202.426
1157.109, 159.580
1157.591, 142.151
1158.073, 154.137
1158.555, 162.238
1159.037, 136.267
1159.520, 100.897
1160.002, 87.934
1160.484, 89.583
1160.966, 87.038
1161.448, 67.847
1161.930, 65.807
1162.412, 87.379
1162.894, 108.878
1163.377, 100.712
1163.859, 79.618
1164.341, 74.663
1164.823, 83.625
1165.305, 84.633
1165.787, 63.623
1166.269, 51.005
1166.751, 50.419
1167.234, 60.671
1167.716, 94.915
1168.198, 135.828
1168.680, 140.083
1169.162, 104.516
1169.644, 89.807
1170.126, 141.431
1170.608, 178.908
1171.090, 176.000
1171.573, 154.785
1172.055, 154.094
1172.537, 171.771
1173.019, 207.168
1173.501, 264.918
1173.983, 303.222
1174.465, 283.820
1174.947, 267.842
1175.429, 285.590
1175.912, 323.360
1176.394, 328.230
1176.876, 309.640
1177.358, 306.083
1177.840, 341.353
1178.322, 366.278
1178.804, 354.971
1179.286, 329.837
1179.769, 299.616
1180.251, 267.014
1180.733, 260.528
1181.215, 275.664
1181.697, 285.605
1182.179, 276.742
1182.661, 260.838
1183.143, 230.012
1183.625, 205.143
1184.108, 212.729
1184.590, 251.840
1185.072, 270.520
1185.554, 268.260
1186.036, 244.940
1186.518, 165.412
1187.000, 102.236
1187.482, 114.314
1187.964, 161.942
1188.447, 185.056
1188.929, 183.416
1189.411, 165.142
1189.893, 130.775
1190.375, 100.620
1190.857, 91.593
1191.339, 91.394
1191.821, 99.372
1192.304, 108.002
1192.786, 96.316
1193.268, 62.343
1193.750, 36.570
1194.232, 23.320
1194.714, 19.662
1195.196, 32.739
1195.678, 46.172
1196.161, 44.431
1196.643, 30.122
1197.125, 18.259
1197.607, 8.284
1198.089, 8.509
1198.571, 22.480
1199.053, 40.587
1199.535, 62.988
1200.017, 79.503
1200.500, 72.468
1200.982, 43.493
1201.464, 35.387
1201.946, 51.748
1202.428, 54.838
1202.910, 26.283
1203.392, 4.388
1203.874, 4.561
1204.356, 8.870
1204.839, 15.016
1205.321, 12.574
1205.803, 7.202
1206.285, 1.338
1206.767, 11.689
1207.249, 28.880
1207.731, 38.844
1208.213, 16.555
1208.696, 17.979
1209.178, 34.842
1209.660, 27.615
1210.142, 24.448
1210.624, 26.212
1211.106, 24.481
1211.588, 9.665
1212.070, 6.624
1212.552, 10.479
1213.035, 7.992
1213.517, 10.279
1213.999, 20.482
1214.481, 27.176
1214.963, 30.076
1215.445, 30.990
1215.927, 35.203
1216.409, 34.578
1216.892, 9.955
1217.374, 23.719
1217.856, 28.825
1218.338, 6.709
1218.820, 25.081
1219.302, 20.653
1219.784, 14.946
1220.266, 36.761
1220.749, 57.069
1221.231, 42.527
1221.713, 2.764
1222.195, 28.861
1222.677, 53.659
1223.159, 54.619
1223.641, 26.406
1224.123, 0.600
1224.605, 7.262
1225.088, 27.690
1225.570, 45.986
1226.052, 60.650
1226.534, 71.031
1227.016, 76.468
1227.498, 83.874
1227.980, 96.586
1228.462, 97.466
1228.944, 52.123
1229.427, 1.634
1229.909, 18.812
1230.391, 8.100
1230.873, 22.179
1231.355, 75.510
1231.837, 117.616
1232.319, 141.507
1232.801, 149.280
1233.284, 131.302
1233.766, 106.972
1234.248, 91.711
1234.730, 85.999
1235.212, 89.272
1235.694, 101.913
1236.176, 114.024
1236.658, 123.924
1237.141, 128.112
1237.623, 110.158
1238.105, 95.158
1238.587, 114.599
1239.069, 161.318
1239.551, 183.827
1240.033, 182.078
1240.515, 157.170
1240.997, 96.692
1241.479, 52.762
1241.962, 80.406
1242.444, 131.799
1242.926, 165.416
1243.408, 186.320
1243.890, 196.332
1244.372, 193.518
1244.854, 181.388
1245.336, 167.743
1245.819, 168.774
1246.301, 208.417
1246.783, 249.505
1247.265, 261.173
1247.747, 248.117
1248.229, 211.326
1248.711, 156.881
1249.193, 120.898
1249.676, 136.799
1250.158, 157.366
1250.640, 159.862
1251.122, 153.913
1251.604, 137.638
1252.086, 130.393
1252.568, 114.821
1253.050, 86.871
1253.532, 71.655
1254.015, 84.597
1254.497, 105.016
1254.979, 138.822
1255.461, 162.205
1255.943, 150.171
1256.425, 117.044
1256.907, 51.354
1257.389, 6.211
1257.871, 66.665
1258.354, 99.922
1258.836, 108.626
1259.318, 20.382
1259.800, 57.546
1260.282, 43.163
1260.764, 28.231
1261.246, 83.128
1261.728, 2.927
1262.211, 52.898
1262.693, 54.380
1263.175, 79.313
1263.657, 53.350
1264.139, 42.757
1264.621, 82.868
1265.103, 94.890
1265.585, 62.460
1266.068, 88.513
1266.550, 11.237
1267.032, 25.575
1267.514, 78.672
1267.996, 31.458
1268.478, 46.810
1268.960, 54.588
1269.442, 58.055
1269.924, 61.403
1270.406, 69.677
1270.889, 63.210
1271.371, 37.433
1271.853, 19.234
1272.335, 13.979
1272.817, 20.153
1273.299, 57.128
1273.781, 89.228
1274.263, 61.231
1274.746, 4.868
1275.228, 1.985
1275.710, 67.777
1276.192, 95.816
1276.674, 78.388
1277.156, 52.366
1277.638, 34.536
1278.120, 29.227
1278.603, 55.236
1279.085, 89.779
1279.567, 89.737
1280.049, 55.612
1280.531, 24.324
1281.013, 0.230
1281.495, 0.000
##END=



