##NAMES=Salammoniac
##RRUFFID=R060521
##IDEAL CHEMISTRY=NH_4_Cl
##LOCALITY=Tien-Shan Mountains, Tadzhikistan, U.S.S.R
##OWNER=RRUFF
##SOURCE=Michael Scott
##DESCRIPTION=White dendritic
##STATUS=The identification of this mineral has been confirmed by X-ray diffraction and chemical analysis
##URL=rruff.info/R060521
##MEASURED CHEMISTRY=NH_4_Cl_1.00_ ; N, H not measured but estimated by stoichiometry
108.505, 81.136
108.987, 45.184
109.469, 37.628
109.951, 178.070
110.433, 359.235
110.915, 564.246
111.397, 824.297
111.879, 1076.298
112.362, 1306.577
112.844, 1504.888
113.326, 1694.879
113.808, 1880.792
114.290, 2062.271
114.772, 2231.972
115.254, 2365.798
115.736, 2501.615
116.218, 2660.235
116.701, 2835.372
117.183, 3046.744
117.665, 3304.168
118.147, 3604.044
118.629, 3937.278
119.111, 4306.014
119.593, 4702.488
120.075, 5112.802
120.558, 5523.255
121.040, 5956.374
121.522, 6456.542
122.004, 7027.727
122.486, 7555.326
122.968, 7967.059
123.450, 8277.401
123.932, 8513.622
124.414, 8632.204
124.897, 8704.809
125.379, 8814.556
125.861, 8966.630
126.343, 9157.649
126.825, 9391.453
127.307, 9664.075
127.789, 9959.566
128.271, 10251.985
128.753, 10557.764
129.236, 10912.344
129.718, 11322.895
130.200, 11783.054
130.682, 12291.060
131.164, 12842.167
131.646, 13421.019
132.128, 14020.062
132.610, 14633.256
133.093, 15259.725
133.575, 15902.255
134.057, 16554.129
134.539, 17231.580
135.021, 17946.662
135.503, 18638.740
135.985, 19219.838
136.467, 19686.570
136.949, 20133.352
137.432, 20599.551
137.914, 21086.732
138.396, 21510.703
138.878, 21877.922
139.360, 22166.406
139.842, 22326.066
140.324, 22329.910
140.806, 22280.082
141.288, 22223.277
141.771, 22179.361
142.253, 22052.479
142.735, 21812.406
143.217, 21500.029
143.699, 21234.205
144.181, 21027.760
144.663, 20846.068
145.145, 20670.816
145.628, 20516.197
146.110, 20340.059
146.592, 20124.160
147.074, 19875.010
147.556, 19666.848
148.038, 19530.250
148.520, 19406.555
149.002, 19257.580
149.484, 19041.145
149.967, 18845.607
150.449, 18680.697
150.931, 18546.391
151.413, 18433.348
151.895, 18355.250
152.377, 18292.982
152.859, 18231.588
153.342, 18164.404
153.824, 18106.158
154.306, 18063.695
154.788, 18041.609
155.270, 18021.658
155.752, 17993.740
156.234, 17970.389
156.716, 17967.645
157.198, 17993.994
157.680, 18022.699
158.163, 18063.293
158.645, 18112.477
159.127, 18179.855
159.609, 18278.166
160.091, 18395.027
160.573, 18506.992
161.055, 18595.314
161.538, 18679.080
162.020, 18767.400
162.502, 18862.285
162.984, 18958.943
163.466, 19063.359
163.948, 19167.045
164.430, 19248.369
164.912, 19299.684
165.394, 19325.656
165.876, 19329.037
166.359, 19308.908
166.841, 19268.221
167.323, 19218.643
167.805, 19155.902
168.287, 19051.246
168.769, 18874.141
169.251, 18652.484
169.733, 18416.834
170.216, 18190.645
170.698, 17947.941
171.180, 17667.812
171.662, 17349.568
172.144, 17007.521
172.626, 16636.268
173.108, 16248.396
173.590, 15858.505
174.072, 15470.903
174.555, 15086.363
175.037, 14694.414
175.519, 14292.464
176.001, 13902.860
176.483, 13557.872
176.965, 13243.678
177.447, 12933.529
177.929, 12595.239
178.412, 12257.089
178.894, 11969.863
179.376, 11745.639
179.858, 11547.666
180.340, 11338.756
180.822, 11122.059
181.304, 10908.229
181.786, 10701.614
182.268, 10502.281
182.751, 10309.263
183.233, 10120.661
183.715, 9946.119
184.197, 9814.446
184.679, 9720.524
185.161, 9624.700
185.643, 9491.875
186.125, 9333.752
186.607, 9183.055
187.090, 9043.936
187.572, 8918.285
188.054, 8810.908
188.536, 8722.627
189.018, 8641.014
189.500, 8559.835
189.982, 8479.790
190.464, 8397.827
190.947, 8316.624
191.429, 8232.134
191.911, 8131.719
192.393, 8013.173
192.875, 7895.806
193.357, 7801.438
193.839, 7730.488
194.321, 7645.921
194.803, 7534.818
195.286, 7404.095
195.768, 7279.367
196.250, 7161.888
196.732, 7049.579
197.214, 6942.408
197.696, 6840.938
198.178, 6736.901
198.661, 6629.132
199.143, 6516.844
199.625, 6390.920
200.107, 6247.605
200.589, 6099.279
201.071, 5957.194
201.553, 5819.029
202.035, 5692.996
202.517, 5585.139
202.999, 5495.127
203.482, 5394.333
203.964, 5281.546
204.446, 5157.564
204.928, 5018.772
205.410, 4859.897
205.892, 4711.113
206.374, 4588.480
206.857, 4493.822
207.339, 4392.788
207.821, 4284.717
208.303, 4170.578
208.785, 4051.410
209.267, 3925.313
209.749, 3795.875
210.231, 3662.723
210.713, 3523.354
211.195, 3400.227
211.678, 3297.496
212.160, 3205.666
212.642, 3108.578
213.124, 3006.093
213.606, 2901.812
214.088, 2795.888
214.570, 2682.408
215.052, 2583.420
215.535, 2503.429
216.017, 2436.279
216.499, 2365.548
216.981, 2284.935
217.463, 2207.806
217.945, 2143.719
218.427, 2103.956
218.909, 2047.669
219.391, 1963.105
219.874, 1862.177
220.356, 1788.656
220.838, 1758.984
221.320, 1731.055
221.802, 1680.080
222.284, 1593.599
222.766, 1517.333
223.248, 1458.824
223.731, 1413.377
224.213, 1363.151
224.695, 1303.859
225.177, 1245.536
225.659, 1192.959
226.141, 1147.187
226.623, 1106.101
227.105, 1072.155
227.587, 1043.863
228.070, 1010.536
228.552, 968.844
229.034, 924.728
229.516, 883.072
229.998, 845.923
230.480, 810.572
230.962, 775.497
231.444, 739.936
231.926, 705.270
232.409, 672.920
232.891, 641.272
233.373, 609.909
233.855, 584.120
234.337, 548.235
234.819, 493.283
235.301, 422.741
235.783, 375.178
236.266, 363.597
236.748, 360.024
237.230, 344.212
237.712, 309.178
238.194, 275.881
238.676, 247.954
239.158, 225.025
239.640, 203.446
240.122, 182.786
240.605, 162.279
241.087, 140.889
241.569, 116.005
242.051, 94.079
242.533, 75.746
243.015, 60.969
243.497, 46.092
243.980, 31.062
244.462, 16.313
244.944, 0.884
245.426, 20.141
245.908, 30.918
246.390, 22.654
246.872, 2.460
247.354, 2.577
247.836, 39.404
248.318, 86.319
248.801, 108.616
249.283, 117.931
249.765, 108.378
250.247, 103.504
250.729, 102.971
251.211, 119.775
251.693, 114.141
252.176, 117.455
252.658, 120.948
253.140, 111.921
253.622, 126.000
254.104, 117.308
254.586, 117.772
255.068, 114.063
255.550, 119.388
256.032, 121.925
256.514, 123.059
256.997, 112.686
257.479, 111.015
257.961, 130.505
258.443, 168.885
258.925, 189.225
259.407, 186.446
259.889, 174.542
260.371, 165.498
260.854, 162.737
261.336, 153.539
261.818, 132.256
262.300, 101.330
262.782, 84.531
263.264, 86.228
263.746, 94.854
264.228, 101.535
264.711, 106.503
265.193, 109.799
265.675, 112.715
266.157, 114.368
266.639, 106.862
267.121, 84.862
267.603, 63.937
268.085, 59.726
268.567, 78.833
269.050, 86.203
269.532, 71.411
270.014, 40.003
270.496, 24.005
270.978, 28.111
271.460, 35.897
271.942, 32.938
272.424, 15.632
272.906, 7.422
273.389, 15.893
273.871, 35.297
274.353, 38.622
274.835, 21.279
275.317, 2.210
275.799, 1.688
276.281, 12.345
276.763, 16.799
277.246, 5.241
277.728, 17.191
278.210, 32.673
278.692, 39.381
279.174, 46.240
279.656, 61.799
280.138, 86.539
280.620, 104.260
281.103, 111.020
281.585, 110.885
282.067, 114.377
282.549, 121.653
283.031, 130.956
283.513, 143.042
283.995, 157.552
284.477, 165.489
284.959, 162.744
285.441, 156.947
285.924, 170.477
286.406, 204.716
286.888, 230.684
287.370, 218.587
287.852, 175.806
288.334, 157.088
288.816, 172.851
289.298, 206.699
289.781, 233.346
290.263, 252.818
290.745, 265.305
291.227, 265.787
291.709, 258.091
292.191, 258.646
292.673, 270.017
293.155, 286.528
293.638, 294.723
294.120, 297.161
294.602, 313.135
295.084, 303.494
295.566, 338.683
296.048, 362.904
296.530, 376.746
297.012, 349.313
297.494, 375.018
297.977, 379.332
298.459, 382.701
298.941, 415.687
299.423, 393.898
299.905, 426.271
300.387, 436.926
300.869, 457.419
301.351, 456.390
301.833, 461.918
302.316, 488.834
302.798, 503.733
303.280, 499.737
303.762, 520.124
304.244, 496.648
304.726, 511.789
305.208, 543.470
305.690, 539.959
306.173, 540.024
306.655, 529.832
307.137, 542.498
307.619, 563.941
308.101, 593.422
308.583, 612.905
309.065, 599.278
309.547, 570.471
310.030, 549.949
310.512, 551.273
310.994, 560.914
311.476, 572.144
311.958, 585.202
312.440, 593.708
312.922, 592.610
313.404, 585.883
313.886, 577.868
314.369, 561.641
314.851, 552.867
315.333, 565.240
315.815, 593.568
316.297, 613.605
316.779, 616.381
317.261, 608.873
317.743, 595.330
318.225, 567.624
318.708, 544.716
319.190, 535.157
319.672, 537.039
320.154, 542.294
320.636, 547.894
321.118, 554.635
321.600, 564.008
322.082, 584.450
322.565, 594.603
323.047, 581.417
323.529, 554.783
324.011, 537.836
324.493, 538.584
324.975, 547.475
325.457, 561.984
325.939, 587.522
326.422, 603.031
326.904, 601.781
327.386, 592.293
327.868, 588.608
328.350, 600.166
328.832, 605.645
329.314, 597.607
329.796, 570.987
330.278, 551.792
330.760, 540.682
331.243, 534.522
331.725, 530.452
332.207, 531.693
332.689, 534.191
333.171, 538.292
333.653, 543.841
334.135, 540.439
334.617, 522.017
335.100, 503.508
335.582, 501.479
336.064, 523.631
336.546, 539.578
337.028, 541.145
337.510, 531.217
337.992, 531.960
338.474, 548.147
338.957, 564.114
339.439, 563.291
339.921, 541.173
340.403, 528.920
340.885, 535.777
341.367, 554.258
341.849, 556.940
342.331, 541.507
342.813, 522.681
343.296, 506.800
343.778, 493.993
344.260, 492.347
344.742, 506.767
345.224, 527.301
345.706, 537.810
346.188, 538.473
346.670, 534.270
347.152, 530.670
347.635, 526.832
348.117, 515.488
348.599, 494.647
349.081, 472.814
349.563, 454.300
350.045, 441.492
350.527, 445.092
351.009, 490.827
351.491, 549.764
351.974, 570.984
352.456, 552.998
352.938, 523.133
353.420, 499.221
353.902, 482.279
354.384, 474.907
354.866, 484.781
355.349, 500.254
355.831, 514.527
356.313, 526.014
356.795, 524.069
357.277, 484.358
357.759, 433.973
358.241, 402.204
358.723, 408.228
359.205, 420.780
359.688, 423.653
360.170, 419.219
360.652, 414.467
361.134, 414.150
361.616, 413.352
362.098, 407.106
362.580, 389.714
363.062, 378.143
363.544, 386.829
364.027, 403.771
364.509, 405.899
364.991, 370.910
365.473, 334.669
365.955, 310.812
366.437, 301.919
366.919, 298.929
367.401, 310.233
367.884, 323.719
368.366, 325.180
368.848, 295.867
369.330, 274.603
369.812, 272.787
370.294, 292.491
370.776, 298.265
371.258, 279.469
371.741, 256.338
372.223, 245.203
372.705, 252.314
373.187, 259.393
373.669, 264.974
374.151, 268.704
374.633, 270.201
375.115, 271.097
375.597, 266.008
376.079, 248.251
376.562, 213.636
377.044, 190.551
377.526, 183.775
378.008, 186.357
378.490, 184.562
378.972, 177.919
379.454, 170.580
379.936, 165.363
380.419, 161.828
380.901, 153.818
381.383, 140.625
381.865, 126.425
382.347, 118.253
382.829, 114.888
383.311, 108.301
383.793, 91.717
384.276, 71.728
384.758, 64.385
385.240, 69.538
385.722, 72.956
386.204, 57.434
386.686, 31.955
387.168, 14.678
387.650, 10.980
388.132, 15.375
388.615, 25.667
389.097, 40.259
389.579, 52.886
390.061, 60.908
390.543, 64.522
391.025, 62.783
391.507, 53.394
391.989, 45.065
392.471, 46.900
392.954, 52.676
393.436, 51.484
393.918, 30.840
394.400, 9.643
394.882, 1.799
395.364, 1.153
395.846, 2.710
396.328, 16.470
396.810, 31.039
397.293, 35.524
397.775, 15.805
398.257, 0.597
398.739, 8.767
399.221, 8.706
399.703, 5.280
400.185, 10.584
400.668, 22.112
401.150, 18.283
401.632, 21.820
402.114, 37.241
402.596, 12.586
403.078, 33.368
403.560, 51.095
404.042, 28.179
404.524, 4.905
405.007, 2.317
405.489, 8.194
405.971, 18.769
406.453, 30.750
406.935, 40.123
407.417, 40.230
407.899, 30.727
408.381, 20.375
408.863, 10.454
409.346, 1.923
409.828, 0.159
410.310, 5.549
410.792, 10.003
411.274, 3.198
411.756, 10.590
412.238, 15.522
412.720, 3.319
413.203, 8.214
413.685, 10.944
414.167, 53.663
414.649, 90.410
415.131, 101.709
415.613, 98.830
416.095, 91.687
416.577, 79.929
417.060, 72.657
417.542, 82.426
418.024, 99.206
418.506, 108.640
418.988, 91.873
419.470, 77.629
419.952, 85.832
420.434, 114.598
420.916, 134.408
421.398, 124.886
421.881, 109.416
422.363, 104.198
422.845, 123.473
423.327, 139.135
423.809, 147.367
424.291, 149.368
424.773, 148.322
425.255, 137.450
425.738, 130.703
426.220, 133.334
426.702, 148.208
427.184, 162.969
427.666, 181.146
428.148, 196.400
428.630, 197.870
429.112, 176.167
429.595, 168.449
430.077, 189.031
430.559, 231.736
431.041, 253.005
431.523, 249.235
432.005, 239.280
432.487, 234.471
432.969, 234.971
433.451, 246.771
433.934, 274.629
434.416, 305.734
434.898, 315.562
435.380, 306.785
435.862, 298.974
436.344, 306.467
436.826, 320.875
437.308, 324.457
437.790, 316.041
438.273, 307.459
438.755, 309.256
439.237, 317.849
439.719, 327.555
440.201, 336.118
440.683, 345.476
441.165, 360.280
441.647, 378.066
442.129, 388.608
442.612, 381.795
443.094, 369.730
443.576, 358.225
444.058, 342.507
444.540, 339.720
445.022, 367.434
445.504, 408.652
445.987, 436.228
446.469, 433.550
446.951, 430.310
447.433, 435.629
447.915, 450.357
448.397, 457.021
448.879, 447.679
449.361, 437.736
449.843, 440.093
450.326, 462.509
450.808, 477.955
451.290, 481.412
451.772, 477.369
452.254, 479.774
452.736, 490.527
453.218, 498.862
453.700, 497.708
454.182, 486.727
454.665, 475.822
455.147, 465.562
455.629, 458.392
456.111, 453.643
456.593, 451.370
457.075, 456.240
457.557, 473.265
458.039, 494.481
458.522, 509.371
459.004, 519.209
459.486, 525.080
459.968, 522.994
460.450, 516.805
460.932, 510.053
461.414, 505.099
461.896, 500.820
462.379, 487.521
462.861, 473.237
463.343, 472.116
463.825, 509.881
464.307, 542.806
464.789, 547.995
465.271, 525.303
465.753, 509.055
466.235, 505.482
466.717, 510.823
467.200, 522.665
467.682, 551.637
468.164, 571.704
468.646, 577.128
469.128, 574.658
469.610, 580.611
470.092, 600.722
470.574, 617.932
471.057, 625.303
471.539, 622.866
472.021, 620.248
472.503, 616.547
472.985, 614.338
473.467, 619.507
473.949, 631.876
474.431, 633.628
474.914, 616.509
475.396, 592.640
475.878, 588.823
476.360, 603.073
476.842, 617.274
477.324, 617.430
477.806, 611.318
478.288, 610.298
478.770, 604.072
479.253, 617.846
479.735, 626.789
480.217, 631.162
480.699, 617.216
481.181, 626.961
481.663, 627.230
482.145, 627.126
482.627, 640.247
483.109, 629.049
483.592, 642.007
484.074, 645.353
484.556, 653.128
485.038, 649.404
485.520, 672.351
486.002, 660.259
486.484, 637.690
486.966, 635.743
487.448, 673.471
487.931, 700.637
488.413, 704.749
488.895, 688.420
489.377, 674.176
489.859, 661.177
490.341, 653.266
490.823, 656.215
491.306, 670.491
491.788, 678.154
492.270, 677.380
492.752, 671.525
493.234, 663.378
493.716, 653.683
494.198, 646.479
494.680, 644.305
495.162, 645.235
495.645, 648.941
496.127, 654.668
496.609, 654.773
497.091, 634.544
497.573, 609.506
498.055, 598.424
498.537, 608.327
499.019, 623.865
499.501, 640.021
499.984, 655.973
500.466, 670.641
500.948, 689.281
501.430, 701.171
501.912, 703.350
502.394, 695.598
502.876, 678.071
503.358, 630.218
503.841, 588.956
504.323, 576.688
504.805, 609.991
505.287, 639.458
505.769, 667.924
506.251, 688.690
506.733, 685.519
507.215, 651.824
507.698, 623.183
508.180, 613.715
508.662, 619.600
509.144, 621.162
509.626, 618.312
510.108, 612.763
510.590, 605.408
511.072, 596.670
511.554, 586.935
512.036, 575.198
512.519, 566.063
513.001, 567.463
513.483, 574.568
513.965, 580.399
514.447, 582.600
514.929, 582.546
515.411, 575.304
515.893, 562.884
516.375, 557.656
516.858, 572.135
517.340, 590.718
517.822, 597.312
518.304, 587.173
518.786, 573.012
519.268, 548.949
519.750, 524.797
520.232, 515.525
520.715, 533.724
521.197, 549.192
521.679, 552.016
522.161, 546.102
522.643, 542.370
523.125, 540.751
523.607, 539.335
524.089, 535.531
524.571, 529.703
525.054, 513.523
525.536, 477.724
526.018, 442.431
526.500, 438.232
526.982, 459.065
527.464, 482.418
527.946, 504.443
528.429, 519.331
528.911, 517.254
529.393, 500.627
529.875, 482.046
530.357, 466.944
530.839, 455.006
531.321, 445.812
531.803, 439.521
532.286, 432.741
532.768, 421.934
533.250, 410.364
533.732, 403.156
534.214, 403.582
534.696, 406.596
535.178, 418.338
535.660, 433.123
536.142, 418.308
536.625, 352.234
537.107, 296.704
537.589, 288.683
538.071, 335.558
538.553, 353.466
539.035, 336.856
539.517, 308.928
539.999, 296.820
540.481, 299.360
540.964, 302.986
541.446, 302.936
541.928, 301.140
542.410, 301.375
542.892, 303.385
543.374, 304.572
543.856, 302.542
544.338, 298.712
544.820, 295.308
545.303, 293.474
545.785, 288.685
546.267, 272.573
546.749, 255.021
547.231, 244.288
547.713, 249.606
548.195, 252.425
548.677, 250.924
549.159, 245.162
549.642, 235.095
550.124, 217.448
550.606, 200.863
551.088, 187.371
551.570, 177.031
552.052, 168.354
552.534, 161.138
553.016, 156.170
553.499, 155.243
553.981, 157.890
554.463, 158.595
554.945, 156.352
555.427, 153.644
555.909, 156.215
556.391, 161.346
556.873, 160.738
557.356, 145.639
557.838, 128.012
558.320, 120.854
558.802, 121.965
559.284, 120.925
559.766, 108.203
560.248, 94.989
560.730, 89.303
561.213, 94.801
561.695, 98.098
562.177, 98.132
562.659, 94.136
563.141, 84.956
563.623, 64.872
564.105, 49.142
564.587, 39.593
565.069, 35.179
565.552, 32.985
566.034, 32.779
566.516, 35.880
566.998, 45.763
567.480, 60.015
567.962, 62.096
568.444, 51.148
568.926, 41.715
569.408, 15.128
569.891, 3.899
570.373, 18.607
570.855, 6.127
571.337, 19.376
571.819, 21.759
572.301, 19.240
572.783, 4.258
573.265, 11.734
573.747, 20.148
574.230, 2.659
574.712, 32.122
575.194, 9.853
575.676, 10.391
576.158, 0.518
576.640, 13.242
577.122, 19.014
577.604, 2.222
578.086, 2.045
578.569, 13.359
579.051, 2.943
579.533, 38.720
580.015, 34.015
580.497, 11.864
580.979, 26.272
581.461, 15.592
581.943, 14.504
582.426, 56.926
582.908, 41.944
583.390, 32.871
583.872, 28.435
584.354, 28.514
584.836, 26.653
585.318, 17.234
585.800, 5.519
586.282, 5.578
586.765, 17.766
587.247, 22.370
587.729, 10.867
588.211, 7.026
588.693, 19.437
589.175, 24.540
589.657, 26.322
590.140, 23.117
590.622, 17.282
591.104, 18.029
591.586, 28.054
592.068, 34.341
592.550, 28.490
593.032, 13.143
593.514, 6.300
593.996, 8.255
594.479, 10.647
594.961, 4.778
595.443, 5.478
595.925, 13.475
596.407, 18.855
596.889, 18.796
597.371, 4.640
597.853, 14.693
598.335, 26.044
598.818, 16.767
599.300, 7.310
599.782, 5.931
600.264, 10.576
600.746, 10.677
601.228, 1.016
601.710, 9.198
602.192, 5.651
602.674, 11.546
603.157, 12.552
603.639, 8.331
604.121, 31.634
604.603, 39.461
605.085, 32.920
605.567, 29.796
606.049, 32.455
606.531, 37.878
607.013, 44.259
607.496, 50.381
607.978, 52.763
608.460, 47.527
608.942, 40.557
609.424, 35.871
609.906, 33.203
610.388, 31.492
610.870, 31.244
611.353, 31.045
611.835, 29.415
612.317, 25.537
612.799, 25.680
613.281, 33.824
613.763, 42.308
614.245, 45.660
614.727, 42.330
615.209, 38.581
615.692, 32.392
616.174, 30.118
616.656, 47.644
617.138, 82.771
617.620, 103.649
618.102, 97.608
618.584, 76.489
619.067, 51.359
619.549, 25.543
620.031, 11.118
620.513, 24.699
620.995, 45.010
621.477, 53.960
621.959, 50.686
622.441, 51.748
622.923, 67.881
623.406, 86.639
623.888, 100.650
624.370, 111.892
624.852, 111.827
625.334, 90.486
625.816, 66.930
626.298, 68.879
626.780, 104.149
627.263, 120.980
627.745, 103.517
628.227, 70.199
628.709, 63.746
629.191, 80.824
629.673, 101.028
630.155, 120.741
630.637, 134.649
631.119, 125.864
631.602, 97.442
632.084, 74.784
632.566, 71.284
633.048, 77.091
633.530, 81.558
634.012, 83.319
634.494, 86.189
634.976, 96.161
635.458, 106.478
635.941, 108.780
636.423, 94.622
636.905, 89.644
637.387, 95.413
637.869, 107.832
638.351, 115.538
638.833, 115.860
639.315, 118.002
639.797, 125.880
640.280, 131.948
640.762, 127.694
641.244, 114.852
641.726, 105.266
642.208, 115.546
642.690, 125.954
643.172, 113.872
643.654, 77.786
644.137, 51.518
644.619, 49.784
645.101, 60.890
645.583, 78.903
646.065, 117.150
646.547, 130.882
647.029, 103.766
647.511, 67.053
647.994, 62.017
648.476, 97.471
648.958, 116.361
649.440, 102.593
649.922, 74.489
650.404, 70.406
650.886, 87.959
651.368, 108.195
651.851, 127.534
652.333, 140.334
652.815, 133.039
653.297, 110.688
653.779, 98.700
654.261, 122.762
654.743, 151.566
655.225, 166.173
655.707, 163.027
656.190, 152.785
656.672, 125.679
657.154, 103.214
657.636, 101.098
658.118, 129.626
658.600, 144.959
659.082, 142.797
659.564, 134.671
660.046, 135.541
660.529, 144.061
661.011, 158.192
661.493, 183.864
661.975, 205.867
662.457, 196.181
662.939, 165.053
663.421, 140.594
663.903, 135.260
664.385, 141.987
664.868, 166.107
665.350, 203.067
665.832, 223.225
666.314, 208.301
666.796, 184.624
667.278, 159.522
667.760, 130.650
668.242, 118.693
668.724, 127.506
669.207, 145.281
669.689, 165.336
670.171, 187.026
670.653, 203.451
671.135, 214.110
671.617, 218.440
672.099, 214.954
672.581, 204.864
673.064, 190.255
673.546, 169.435
674.028, 148.712
674.510, 125.567
674.992, 106.296
675.474, 103.116
675.956, 142.214
676.438, 173.027
676.920, 176.741
677.403, 160.345
677.885, 155.022
678.367, 166.139
678.849, 176.774
679.331, 179.921
679.813, 176.190
680.295, 168.173
680.778, 155.252
681.260, 147.025
681.742, 154.438
682.224, 170.670
682.706, 185.375
683.188, 197.948
683.670, 203.511
684.152, 186.714
684.634, 167.357
685.117, 166.527
685.599, 207.887
686.081, 235.679
686.563, 231.723
687.045, 214.870
687.527, 208.242
688.009, 216.635
688.491, 217.210
688.973, 192.561
689.456, 224.575
689.938, 242.845
690.420, 248.121
690.902, 201.425
691.384, 221.870
691.866, 215.423
692.348, 207.886
692.830, 237.816
693.312, 198.741
693.795, 228.099
694.277, 230.157
694.759, 244.729
695.241, 232.252
695.723, 228.159
696.205, 251.161
696.687, 259.197
697.169, 229.928
697.652, 231.698
698.134, 231.569
698.616, 229.375
699.098, 226.047
699.580, 222.521
700.062, 218.802
700.544, 214.304
701.026, 208.758
701.508, 203.697
701.991, 199.556
702.473, 197.235
702.955, 198.407
703.437, 210.660
703.919, 217.740
704.401, 210.131
704.883, 193.187
705.365, 178.761
705.847, 163.771
706.330, 157.041
706.812, 162.583
707.294, 177.467
707.776, 191.987
708.258, 206.867
708.740, 214.192
709.222, 206.290
709.705, 189.377
710.187, 179.104
710.669, 174.853
711.151, 171.661
711.633, 165.843
712.115, 159.951
712.597, 155.887
713.079, 153.785
713.561, 154.042
714.044, 157.253
714.526, 162.578
715.008, 170.232
715.490, 183.818
715.972, 188.750
716.454, 183.079
716.936, 172.229
717.418, 156.255
717.901, 136.818
718.383, 140.708
718.865, 177.851
719.347, 218.467
719.829, 226.673
720.311, 213.258
720.793, 198.813
721.275, 191.736
721.757, 183.443
722.240, 160.797
722.722, 135.271
723.204, 130.417
723.686, 179.488
724.168, 209.341
724.650, 200.908
725.132, 166.138
725.614, 148.325
726.096, 149.261
726.579, 153.927
727.061, 157.604
727.543, 159.623
728.025, 156.548
728.507, 149.319
728.989, 144.407
729.471, 150.473
729.953, 157.317
730.435, 155.567
730.918, 144.619
731.400, 134.117
731.882, 125.454
732.364, 119.447
732.846, 117.241
733.328, 120.336
733.810, 118.818
734.292, 110.399
734.775, 102.707
735.257, 104.656
735.739, 114.332
736.221, 118.866
736.703, 116.627
737.185, 111.709
737.667, 105.911
738.149, 100.822
738.631, 98.817
739.114, 101.145
739.596, 105.354
740.078, 112.115
740.560, 119.767
741.042, 126.468
741.524, 136.873
742.006, 139.502
742.489, 128.630
742.971, 109.074
743.453, 99.034
743.935, 99.926
744.417, 98.937
744.899, 88.764
745.381, 79.431
745.863, 91.258
746.345, 117.197
746.828, 136.663
747.310, 139.517
747.792, 133.652
748.274, 116.416
748.756, 91.294
749.238, 77.073
749.720, 83.467
750.202, 92.583
750.684, 102.609
751.167, 111.806
751.649, 104.459
752.131, 78.443
752.613, 53.895
753.095, 45.201
753.577, 46.675
754.059, 41.124
754.541, 27.994
755.023, 19.389
755.506, 30.582
755.988, 45.872
756.470, 49.307
756.952, 34.620
757.434, 28.289
757.916, 43.496
758.398, 63.314
758.880, 75.741
759.362, 77.277
759.845, 73.187
760.327, 63.668
760.809, 53.633
761.291, 51.493
761.773, 52.943
762.255, 40.717
762.737, 9.792
763.219, 14.579
763.702, 4.140
764.184, 20.599
764.666, 36.635
765.148, 33.797
765.630, 32.289
766.112, 37.134
766.594, 42.802
767.076, 44.091
767.558, 40.341
768.041, 33.016
768.523, 19.845
769.005, 7.759
769.487, 10.470
769.969, 24.531
770.451, 35.551
770.933, 37.939
771.416, 37.471
771.898, 37.299
772.380, 37.869
772.862, 39.990
773.344, 48.159
773.826, 53.009
774.308, 53.154
774.790, 48.778
775.272, 37.803
775.755, 16.634
776.237, 4.412
776.719, 9.507
777.201, 25.202
777.683, 33.523
778.165, 33.958
778.647, 32.801
779.129, 31.199
779.612, 30.566
780.094, 35.687
780.576, 43.493
781.058, 42.893
781.540, 16.275
782.022, 3.375
782.504, 3.981
782.986, 10.896
783.468, 18.089
783.951, 15.899
784.433, 13.105
784.915, 14.053
785.397, 17.667
785.879, 18.589
786.361, 16.901
786.843, 18.846
787.325, 37.260
787.807, 54.510
788.290, 52.196
788.772, 30.435
789.254, 14.657
789.736, 17.171
790.218, 20.198
790.700, 15.571
791.182, 2.869
791.664, 2.725
792.146, 0.043
792.629, 3.789
793.111, 2.559
793.593, 1.116
794.075, 1.522
794.557, 1.495
795.039, 10.580
795.521, 40.561
796.003, 68.191
796.485, 70.377
796.968, 37.826
797.450, 21.060
797.932, 45.503
798.414, 63.820
798.896, 38.585
799.378, 39.318
799.860, 64.819
800.343, 30.479
800.825, 15.113
801.307, 27.689
801.789, 21.142
802.271, 23.513
802.753, 39.136
803.235, 49.692
803.717, 40.503
804.199, 23.994
804.682, 9.212
805.164, 4.437
805.646, 10.894
806.128, 6.665
806.610, 0.081
807.092, 1.470
807.574, 1.833
808.056, 3.166
808.539, 1.719
809.021, 0.076
809.503, 0.082
809.985, 1.872
810.467, 7.284
810.949, 19.178
811.431, 24.429
811.913, 6.721
812.395, 13.397
812.878, 16.314
813.360, 12.988
813.842, 22.801
814.324, 4.401
814.806, 16.504
815.288, 2.947
815.770, 36.299
816.252, 45.901
816.734, 14.058
817.217, 22.397
817.699, 28.791
818.181, 21.513
818.663, 20.500
819.145, 35.444
819.627, 45.961
820.109, 46.905
820.591, 42.804
821.073, 36.631
821.556, 28.392
822.038, 19.512
822.520, 9.273
823.002, 1.862
823.484, 4.299
823.966, 13.303
824.448, 21.160
824.930, 26.659
825.413, 29.497
825.895, 28.388
826.377, 24.919
826.859, 20.459
827.341, 9.426
827.823, 7.657
828.305, 19.945
828.787, 35.580
829.269, 42.912
829.752, 42.073
830.234, 39.105
830.716, 33.771
831.198, 31.446
831.680, 44.794
832.162, 62.854
832.644, 68.452
833.127, 54.163
833.609, 36.186
834.091, 9.934
834.573, 11.075
835.055, 12.584
835.537, 14.911
836.019, 34.730
836.501, 45.112
836.983, 48.456
837.466, 45.812
837.948, 38.293
838.430, 28.800
838.912, 16.600
839.394, 8.761
839.876, 11.434
840.358, 20.952
840.840, 34.928
841.322, 63.931
841.805, 73.344
842.287, 49.121
842.769, 18.568
843.251, 8.337
843.733, 19.371
844.215, 24.576
844.697, 20.770
845.179, 16.780
845.661, 22.427
846.144, 33.831
846.626, 46.380
847.108, 60.629
847.590, 69.852
848.072, 67.756
848.554, 61.505
849.036, 50.285
849.518, 36.496
850.000, 53.643
850.483, 63.285
850.965, 65.943
851.447, 41.341
851.929, 52.719
852.411, 48.873
852.893, 44.378
853.375, 60.386
853.857, 38.939
854.340, 54.811
854.822, 55.677
855.304, 63.371
855.786, 56.363
856.268, 53.926
856.750, 66.141
857.232, 68.031
857.714, 55.377
858.196, 61.705
858.679, 39.394
859.161, 43.665
859.643, 46.249
860.125, 73.986
860.607, 83.203
861.089, 67.695
861.571, 57.319
862.054, 70.137
862.536, 84.468
863.018, 89.229
863.500, 84.012
863.982, 70.147
864.464, 43.828
864.946, 25.820
865.428, 37.287
865.910, 65.745
866.393, 84.443
866.875, 92.380
867.357, 92.732
867.839, 81.158
868.321, 67.746
868.803, 57.900
869.285, 52.690
869.767, 51.241
870.250, 54.625
870.732, 57.619
871.214, 57.682
871.696, 55.154
872.178, 49.171
872.660, 39.991
873.142, 33.153
873.624, 32.980
874.106, 33.864
874.589, 28.523
875.071, 19.504
875.553, 22.033
876.035, 63.241
876.517, 86.679
876.999, 71.562
877.481, 31.823
877.963, 20.206
878.445, 36.976
878.928, 48.055
879.410, 33.810
879.892, 12.752
880.374, 7.898
880.856, 15.436
881.338, 27.355
881.820, 48.863
882.302, 64.734
882.784, 68.622
883.267, 65.084
883.749, 62.770
884.231, 62.527
884.713, 56.339
885.195, 39.000
885.677, 22.279
886.159, 28.747
886.641, 49.469
887.123, 65.202
887.606, 71.091
888.088, 68.035
888.570, 46.859
889.052, 21.415
889.534, 10.333
890.016, 18.664
890.498, 29.718
890.981, 44.457
891.463, 57.102
891.945, 55.770
892.427, 44.700
892.909, 40.551
893.391, 48.207
893.873, 59.529
894.355, 77.758
894.837, 92.126
895.320, 89.306
895.802, 53.404
896.284, 43.610
896.766, 72.391
897.248, 103.946
897.730, 108.033
898.212, 89.276
898.694, 74.002
899.177, 63.501
899.659, 56.666
900.141, 56.497
900.623, 57.208
901.105, 52.691
901.587, 42.749
902.069, 39.381
902.551, 44.180
903.033, 48.848
903.516, 50.573
903.998, 51.076
904.480, 43.524
904.962, 29.682
905.444, 23.868
905.926, 40.823
906.408, 63.536
906.890, 80.952
907.372, 90.692
907.855, 83.748
908.337, 27.232
908.819, 8.272
909.301, 1.978
909.783, 39.867
910.265, 48.935
910.747, 29.416
911.229, 13.474
911.711, 13.279
912.194, 18.771
912.676, 17.697
913.158, 13.423
913.640, 12.353
914.122, 18.541
914.604, 25.842
915.086, 36.934
915.568, 45.845
916.050, 41.953
916.533, 23.661
917.015, 13.379
917.497, 14.199
917.979, 23.211
918.461, 48.213
918.943, 74.983
919.425, 79.665
919.907, 50.624
920.390, 25.945
920.872, 17.915
921.354, 17.699
921.836, 21.408
922.318, 30.268
922.800, 29.295
923.282, 16.810
923.765, 9.096
924.247, 26.398
924.729, 52.803
925.211, 62.942
925.693, 56.385
926.175, 51.357
926.657, 60.313
927.139, 67.209
927.621, 62.932
928.104, 49.560
928.586, 42.501
929.068, 24.489
929.550, 45.227
930.032, 56.533
930.514, 58.930
930.996, 26.236
931.478, 39.906
931.960, 34.777
932.443, 28.380
932.925, 47.581
933.407, 20.008
933.889, 39.535
934.371, 39.660
934.853, 48.303
935.335, 38.885
935.817, 36.205
936.299, 36.536
936.782, 35.583
937.264, 37.654
937.746, 38.555
938.228, 35.325
938.710, 38.111
939.192, 60.907
939.674, 81.062
940.156, 77.502
940.638, 44.490
941.121, 34.984
941.603, 51.974
942.085, 70.543
942.567, 68.354
943.049, 54.290
943.531, 41.143
944.013, 30.729
944.495, 24.687
944.978, 24.751
945.460, 28.139
945.942, 34.945
946.424, 44.287
946.906, 49.712
947.388, 51.178
947.870, 48.996
948.352, 38.754
948.834, 29.514
949.317, 38.620
949.799, 58.302
950.281, 69.937
950.763, 58.858
951.245, 51.714
951.727, 57.117
952.209, 66.043
952.692, 64.161
953.174, 51.086
953.656, 46.269
954.138, 54.511
954.620, 63.075
955.102, 55.699
955.584, 41.686
956.066, 33.302
956.548, 35.016
957.031, 34.302
957.513, 26.558
957.995, 19.014
958.477, 13.453
958.959, 10.226
959.441, 13.747
959.923, 12.837
960.405, 27.147
960.888, 29.848
961.370, 13.887
961.852, 2.313
962.334, 0.022
962.816, 5.386
963.298, 5.117
963.780, 18.534
964.262, 34.011
964.744, 48.521
965.227, 52.867
965.709, 48.642
966.191, 46.143
966.673, 47.840
967.155, 53.223
967.637, 66.358
968.119, 79.245
968.601, 80.781
969.083, 50.620
969.566, 41.333
970.048, 27.734
970.530, 55.956
971.012, 73.944
971.494, 82.294
971.976, 52.346
972.458, 72.066
972.940, 71.963
973.422, 81.730
973.905, 96.504
974.387, 108.890
974.869, 115.921
975.351, 115.625
975.833, 106.181
976.315, 96.204
976.797, 90.284
977.279, 85.103
977.761, 70.520
978.244, 50.221
978.726, 35.341
979.208, 32.139
979.690, 34.099
980.172, 42.920
980.654, 53.656
981.136, 59.714
981.619, 61.305
982.101, 55.935
982.583, 42.071
983.065, 25.826
983.547, 11.755
984.029, 0.957
984.511, 4.409
984.993, 3.492
985.475, 0.852
985.958, 4.696
986.440, 9.220
986.922, 11.196
987.404, 10.775
987.886, 5.275
988.368, 5.185
988.850, 12.083
989.332, 5.757
989.815, 2.713
990.297, 1.248
990.779, 6.337
991.261, 9.305
991.743, 3.177
992.225, 6.534
992.707, 6.815
993.189, 24.856
993.671, 26.199
994.154, 14.711
994.636, 7.486
995.118, 8.139
995.600, 12.328
996.082, 23.848
996.564, 32.929
997.046, 28.169
997.528, 5.630
998.010, 8.232
998.493, 12.608
998.975, 10.340
999.457, 4.431
999.939, 21.978
1000.421, 13.635
1000.903, 14.189
1001.385, 32.845
1001.867, 19.450
1002.349, 5.493
1002.832, 3.363
1003.314, 7.949
1003.796, 8.512
1004.278, 4.443
1004.760, 5.022
1005.242, 13.963
1005.724, 21.032
1006.206, 8.196
1006.689, 10.910
1007.171, 16.287
1007.653, 2.088
1008.135, 11.203
1008.617, 0.825
1009.099, 10.028
1009.581, 0.844
1010.063, 28.408
1010.545, 51.576
1011.028, 69.656
1011.510, 76.098
1011.992, 58.897
1012.474, 36.892
1012.956, 17.988
1013.438, 4.442
1013.920, 2.223
1014.402, 16.318
1014.885, 26.651
1015.367, 28.032
1015.849, 28.180
1016.331, 43.017
1016.813, 64.297
1017.295, 72.304
1017.777, 63.576
1018.259, 54.521
1018.741, 50.186
1019.224, 47.566
1019.706, 49.176
1020.188, 53.892
1020.670, 57.916
1021.152, 62.272
1021.634, 64.239
1022.116, 56.120
1022.598, 49.168
1023.081, 54.944
1023.563, 71.200
1024.045, 91.498
1024.527, 122.582
1025.009, 143.942
1025.491, 150.964
1025.973, 150.279
1026.455, 148.115
1026.938, 146.605
1027.420, 133.265
1027.902, 157.481
1028.384, 172.606
1028.866, 179.103
1029.348, 151.114
1029.830, 167.663
1030.312, 166.369
1030.794, 173.913
1031.276, 169.341
1031.759, 174.697
1032.241, 181.624
1032.723, 188.341
1033.205, 191.048
1033.687, 191.456
1034.169, 193.484
1034.651, 200.349
1035.133, 206.266
1035.616, 209.801
1036.098, 212.736
1036.580, 219.349
1037.062, 228.094
1037.544, 225.664
1038.026, 209.774
1038.508, 197.922
1038.990, 202.319
1039.473, 216.260
1039.955, 239.659
1040.437, 271.525
1040.919, 288.785
1041.401, 289.514
1041.883, 282.281
1042.365, 266.003
1042.847, 250.322
1043.329, 256.128
1043.812, 274.371
1044.294, 285.764
1044.776, 278.236
1045.258, 272.168
1045.740, 269.979
1046.222, 271.307
1046.704, 278.450
1047.186, 291.668
1047.668, 300.162
1048.151, 302.945
1048.633, 299.553
1049.115, 279.134
1049.597, 263.300
1050.079, 269.604
1050.561, 294.955
1051.043, 315.687
1051.525, 333.236
1052.008, 344.896
1052.490, 346.950
1052.972, 347.143
1053.454, 367.240
1053.936, 391.650
1054.418, 387.355
1054.900, 331.390
1055.382, 299.436
1055.865, 331.603
1056.347, 369.063
1056.829, 374.757
1057.311, 352.216
1057.793, 353.363
1058.275, 377.162
1058.757, 394.753
1059.239, 376.213
1059.721, 356.526
1060.203, 365.435
1060.686, 389.625
1061.168, 395.173
1061.650, 372.885
1062.132, 363.079
1062.614, 373.207
1063.096, 387.710
1063.578, 387.923
1064.060, 380.224
1064.543, 372.511
1065.025, 365.849
1065.507, 363.269
1065.989, 367.426
1066.471, 372.062
1066.953, 376.368
1067.435, 379.083
1067.917, 367.317
1068.400, 345.574
1068.882, 340.950
1069.364, 377.709
1069.846, 409.078
1070.328, 397.300
1070.810, 369.648
1071.292, 359.303
1071.774, 370.724
1072.256, 385.132
1072.739, 403.884
1073.221, 415.477
1073.703, 401.454
1074.185, 381.185
1074.667, 383.417
1075.149, 403.379
1075.631, 413.444
1076.113, 398.470
1076.596, 387.337
1077.078, 386.304
1077.560, 389.410
1078.042, 388.111
1078.524, 382.511
1079.006, 369.989
1079.488, 347.759
1079.970, 334.693
1080.453, 347.650
1080.935, 367.077
1081.417, 382.456
1081.899, 393.616
1082.381, 395.774
1082.863, 389.063
1083.345, 383.036
1083.827, 384.090
1084.309, 385.051
1084.792, 374.951
1085.274, 361.345
1085.756, 358.337
1086.238, 376.471
1086.720, 382.432
1087.202, 372.922
1087.684, 359.531
1088.166, 347.877
1088.648, 341.562
1089.131, 353.483
1089.613, 380.430
1090.095, 396.778
1090.577, 387.646
1091.059, 372.747
1091.541, 354.905
1092.023, 337.959
1092.505, 326.939
1092.988, 318.229
1093.470, 307.460
1093.952, 291.767
1094.434, 285.105
1094.916, 308.928
1095.398, 334.751
1095.880, 337.333
1096.362, 317.511
1096.844, 315.905
1097.327, 333.984
1097.809, 345.611
1098.291, 334.106
1098.773, 315.863
1099.255, 306.616
1099.737, 303.867
1100.219, 303.649
1100.701, 307.480
1101.183, 309.677
1101.666, 309.723
1102.148, 309.021
1102.630, 310.279
1103.112, 311.083
1103.594, 303.050
1104.076, 288.159
1104.558, 279.818
1105.040, 292.880
1105.523, 300.466
1106.005, 294.993
1106.487, 281.945
1106.969, 265.872
1107.451, 249.300
1107.933, 249.160
1108.415, 270.720
1108.897, 285.667
1109.380, 265.495
1109.862, 241.514
1110.344, 236.601
1110.826, 248.644
1111.308, 258.488
1111.790, 266.560
1112.272, 260.916
1112.754, 228.173
1113.236, 196.066
1113.719, 199.387
1114.201, 218.311
1114.683, 226.052
1115.165, 213.771
1115.647, 203.376
1116.129, 193.958
1116.611, 188.846
1117.093, 193.191
1117.575, 202.655
1118.058, 208.236
1118.540, 210.669
1119.022, 213.727
1119.504, 222.167
1119.986, 228.083
1120.468, 232.296
1120.950, 230.899
1121.432, 214.521
1121.915, 188.227
1122.397, 173.715
1122.879, 172.725
1123.361, 161.465
1123.843, 105.241
1124.325, 61.415
1124.807, 57.771
1125.289, 83.079
1125.771, 104.765
1126.254, 122.239
1126.736, 128.887
1127.218, 120.728
1127.700, 110.222
1128.182, 105.346
1128.664, 104.514
1129.146, 105.059
1129.628, 105.750
1130.110, 106.380
1130.593, 106.986
1131.075, 111.809
1131.557, 128.210
1132.039, 144.585
1132.521, 147.472
1133.003, 141.701
1133.485, 135.616
1133.967, 134.532
1134.450, 124.095
1134.932, 100.955
1135.414, 77.110
1135.896, 55.866
1136.378, 43.848
1136.860, 63.732
1137.342, 105.642
1137.824, 125.934
1138.307, 83.006
1138.789, 57.911
1139.271, 69.086
1139.753, 88.518
1140.235, 65.747
1140.717, 21.530
1141.199, 20.150
1141.681, 69.440
1142.163, 104.218
1142.646, 82.100
1143.128, 52.516
1143.610, 32.805
1144.092, 20.677
1144.574, 7.386
1145.056, 4.921
1145.538, 1.981
1146.020, 23.963
1146.502, 42.823
1146.985, 28.074
1147.467, 6.899
1147.949, 1.487
1148.431, 10.749
1148.913, 4.300
1149.395, 42.081
1149.877, 58.112
1150.359, 12.539
1150.842, 34.774
1151.324, 24.751
1151.806, 6.380
1152.288, 5.785
1152.770, 42.864
1153.252, 58.119
1153.734, 36.571
1154.216, 11.507
1154.698, 0.562
1155.181, 3.501
1155.663, 32.744
1156.145, 75.357
1156.627, 91.798
1157.109, 71.745
1157.591, 46.699
1158.073, 16.388
1158.555, 4.894
1159.037, 6.534
1159.520, 32.057
1160.002, 46.554
1160.484, 48.627
1160.966, 43.393
1161.448, 26.471
1161.930, 13.406
1162.412, 8.726
1162.894, 7.167
1163.377, 3.820
1163.859, 13.436
1164.341, 7.061
1164.823, 20.055
1165.305, 25.931
1165.787, 4.004
1166.269, 17.840
1166.751, 17.324
1167.234, 16.229
1167.716, 35.102
1168.198, 17.171
1168.680, 33.752
1169.162, 37.686
1169.644, 60.770
1170.126, 31.057
1170.608, 0.860
1171.090, 5.045
1171.573, 12.746
1172.055, 23.668
1172.537, 28.446
1173.019, 31.405
1173.501, 40.834
1173.983, 41.196
1174.465, 15.513
1174.947, 15.472
1175.430, 34.807
1175.912, 41.480
1176.394, 24.611
1176.876, 13.786
1177.358, 42.314
1177.840, 30.073
1178.322, 14.706
1178.804, 12.814
1179.286, 22.493
1179.769, 46.114
1180.251, 83.604
1180.733, 97.985
1181.215, 85.680
1181.697, 62.449
1182.179, 23.419
1182.661, 6.200
1183.143, 2.591
1183.625, 24.595
1184.108, 52.159
1184.590, 81.964
1185.072, 79.752
1185.554, 34.435
1186.036, 10.593
1186.518, 13.524
1187.000, 0.299
1187.482, 3.948
1187.965, 3.053
1188.447, 6.323
1188.929, 35.184
1189.411, 55.959
1189.893, 60.009
1190.375, 54.486
1190.857, 39.836
1191.339, 24.306
1191.822, 1.715
1192.304, 32.469
1192.786, 50.480
1193.268, 56.241
1193.750, 13.015
1194.232, 32.799
1194.714, 27.354
1195.196, 20.873
1195.678, 49.516
1196.161, 36.711
1196.643, 28.658
1197.125, 31.581
1197.607, 48.661
1198.089, 59.448
1198.571, 41.286
1199.053, 17.730
1199.535, 22.659
1200.017, 43.372
1200.500, 54.665
1200.982, 49.470
1201.464, 40.472
1201.946, 24.335
1202.428, 21.255
1202.910, 1.668
1203.392, 31.340
1203.874, 50.708
1204.357, 57.214
1204.839, 12.352
1205.321, 33.930
1205.803, 29.083
1206.285, 23.625
1206.767, 56.476
1207.249, 20.004
1207.731, 49.577
1208.214, 53.290
1208.696, 69.125
1209.178, 57.941
1209.660, 54.832
1210.142, 78.435
1210.624, 57.471
1211.106, 51.730
1211.588, 56.986
1212.070, 64.354
1212.552, 57.784
1213.035, 36.896
1213.517, 28.311
1213.999, 36.634
1214.481, 52.485
1214.963, 78.854
1215.445, 97.824
1215.927, 71.784
1216.409, 28.034
1216.892, 6.011
1217.374, 13.122
1217.856, 19.364
1218.338, 21.229
1218.820, 27.110
1219.302, 42.724
1219.784, 56.897
1220.266, 47.533
1220.749, 27.795
1221.231, 17.302
1221.713, 20.466
1222.195, 30.113
1222.677, 48.188
1223.159, 62.797
1223.641, 68.146
1224.123, 67.810
1224.605, 65.182
1225.088, 61.537
1225.570, 59.340
1226.052, 60.904
1226.534, 57.638
1227.016, 48.102
1227.498, 38.317
1227.980, 30.336
1228.462, 25.450
1228.944, 27.996
1229.427, 34.630
1229.909, 38.719
1230.391, 41.917
1230.873, 32.108
1231.355, 4.518
1231.837, 15.407
1232.319, 2.839
1232.801, 21.403
1233.284, 35.839
1233.766, 41.128
1234.248, 36.517
1234.730, 14.888
1235.212, 4.022
1235.694, 6.238
1236.176, 10.069
1236.658, 3.977
1237.141, 3.319
1237.623, 0.220
1238.105, 10.819
1238.587, 28.556
1239.069, 59.345
1239.551, 70.884
1240.033, 57.713
1240.515, 40.388
1240.997, 37.937
1241.479, 42.725
1241.962, 49.606
1242.444, 55.820
1242.926, 55.145
1243.408, 47.222
1243.890, 28.272
1244.372, 5.520
1244.854, 26.426
1245.336, 4.716
1245.819, 48.150
1246.301, 69.354
1246.783, 72.228
1247.265, 83.443
1247.747, 106.046
1248.229, 112.628
1248.711, 98.035
1249.193, 75.973
1249.676, 53.035
1250.158, 35.708
1250.640, 36.934
1251.122, 50.168
1251.604, 53.971
1252.086, 48.155
1252.568, 46.605
1253.050, 52.063
1253.532, 59.736
1254.015, 70.361
1254.497, 76.667
1254.979, 70.885
1255.461, 57.967
1255.943, 51.846
1256.425, 53.918
1256.907, 58.219
1257.389, 63.228
1257.871, 70.995
1258.354, 91.275
1258.836, 106.410
1259.318, 100.880
1259.800, 83.403
1260.282, 88.341
1260.764, 110.603
1261.246, 122.263
1261.728, 116.452
1262.211, 102.296
1262.693, 79.662
1263.175, 52.256
1263.657, 16.269
1264.139, 11.865
1264.621, 16.431
1265.103, 4.956
1265.585, 11.242
1266.068, 29.624
1266.550, 43.774
1267.032, 50.594
1267.514, 55.799
1267.996, 60.935
1268.478, 66.677
1268.960, 70.501
1269.442, 73.127
1269.924, 70.438
1270.407, 80.177
1270.889, 98.422
1271.371, 130.540
1271.853, 150.989
1272.335, 142.684
1272.817, 117.418
1273.299, 89.572
1273.781, 66.406
1274.264, 67.915
1274.746, 115.730
1275.228, 125.389
1275.710, 80.396
1276.192, 48.221
1276.674, 69.002
1277.156, 111.806
1277.638, 144.206
1278.120, 164.119
1278.603, 160.320
1279.085, 122.402
1279.567, 89.848
1280.049, 67.187
1280.531, 68.972
1281.013, 99.512
1281.495, 126.948
1281.977, 117.160
1282.459, 88.767
1282.942, 65.059
1283.424, 46.246
1283.906, 39.048
1284.388, 41.473
1284.870, 49.638
1285.352, 60.577
1285.834, 72.060
1286.316, 102.029
1286.799, 124.227
1287.281, 113.994
1287.763, 73.630
1288.245, 47.540
1288.727, 34.348
1289.209, 30.499
1289.691, 47.513
1290.173, 55.978
1290.656, 23.651
1291.138, 2.354
1291.620, 26.082
1292.102, 90.862
1292.584, 93.711
1293.066, 39.298
1293.548, 0.608
1294.030, 4.822
1294.512, 0.000
##END=



