##NAMES=Schmitterite
##RRUFFID=R060524
##IDEAL CHEMISTRY=(UO_2_)Te^4+^O_3_
##LOCALITY=Moctezuma mine, Moctezuma, Sonora, Mexico
##OWNER=RRUFF
##SOURCE=Michael Scott
##DESCRIPTION=Pale yellow rosette associated with green emmonsite, R060802
##STATUS=The identification of this mineral has been made only by X-ray diffraction.
##URL=rruff.info/R060524
156.7175, 0.0000000E+00
157.1996, 62.01953
157.6817, 61.77734
158.1639, 9.570313
158.6460, 33.03516
159.1281, 27.05078
159.6102, 32.47656
160.0923, 131.1953
160.5744, 243.6016
161.0566, 340.5625
161.5387, 447.8477
162.0208, 581.8164
162.5029, 753.2188
162.9850, 934.1211
163.4671, 1125.238
163.9493, 1316.832
164.4314, 1481.520
164.9135, 1564.324
165.3956, 1629.531
165.8777, 1738.461
166.3598, 1962.672
166.8420, 2198.812
167.3241, 2376.469
167.8062, 2500.680
168.2883, 2638.883
168.7704, 2840.734
169.2525, 3084.586
169.7346, 3341.738
170.2168, 3587.406
170.6989, 3848.109
171.1810, 4141.148
171.6631, 4469.031
172.1452, 4834.621
172.6273, 5240.098
173.1095, 5686.328
173.5916, 6185.656
174.0737, 6757.418
174.5558, 7381.418
175.0379, 8018.895
175.5201, 8664.641
176.0022, 9351.707
176.4843, 10139.49
176.9664, 10994.27
177.4485, 11827.85
177.9306, 12560.65
178.4128, 13240.49
178.8949, 13968.59
179.3770, 14770.08
179.8591, 15598.91
180.3412, 16397.89
180.8233, 17178.65
181.3055, 17959.31
181.7876, 18767.64
182.2697, 19588.32
182.7518, 20416.60
183.2339, 21259.86
183.7160, 22083.14
184.1981, 22802.54
184.6803, 23420.50
185.1624, 23992.59
185.6445, 24601.62
186.1266, 25210.63
186.6087, 25695.55
187.0908, 26006.73
187.5730, 26187.82
188.0551, 26320.36
188.5372, 26405.77
189.0193, 26448.59
189.5014, 26469.80
189.9835, 26469.17
190.4657, 26410.49
190.9478, 26259.74
191.4299, 26021.39
191.9120, 25708.08
192.3941, 25304.80
192.8762, 24863.61
193.3584, 24430.41
193.8405, 24010.16
194.3226, 23605.55
194.8047, 23224.27
195.2868, 22864.21
195.7689, 22517.06
196.2511, 22188.65
196.7332, 21849.01
197.2153, 21463.90
197.6974, 21031.76
198.1795, 20573.89
198.6616, 20129.48
199.1437, 19689.97
199.6259, 19088.65
200.1080, 18304.35
200.5901, 17396.61
201.0722, 16444.68
201.5543, 15435.08
202.0364, 14429.45
202.5186, 13431.53
203.0007, 12433.85
203.4828, 11535.63
203.9649, 10751.66
204.4470, 10038.75
204.9291, 9328.418
205.4113, 8605.664
205.8934, 7920.035
206.3755, 7292.895
206.8576, 6726.082
207.3397, 6202.156
207.8218, 5724.242
208.3040, 5286.938
208.7861, 4882.348
209.2682, 4523.566
209.7503, 4178.133
210.2324, 3827.012
210.7145, 3466.953
211.1967, 3142.625
211.6788, 2861.336
212.1609, 2618.898
212.6430, 2406.680
213.1251, 2243.066
213.6072, 2077.473
214.0894, 1871.789
214.5715, 1577.676
215.0536, 1334.359
215.5357, 1163.988
216.0178, 1046.055
216.4999, 904.6406
216.9820, 718.2891
217.4642, 543.0820
217.9463, 412.5938
218.4284, 338.9492
218.9105, 268.8438
219.3926, 194.8633
219.8747, 119.0977
220.3569, 54.56250
220.8390, 5.531250
221.3211, 37.82031
221.8032, 78.24219
222.2853, 105.0742
222.7674, 152.7852
223.2496, 238.6953
223.7317, 350.7344
224.2138, 406.1523
224.6959, 376.4766
225.1780, 324.7773
225.6601, 296.3984
226.1423, 311.4844
226.6244, 304.6641
227.1065, 263.9805
227.5886, 192.3906
228.0707, 126.9766
228.5528, 79.23047
229.0350, 25.72656
229.5171, 52.57812
229.9992, 173.2617
230.4813, 280.9609
230.9634, 354.6914
231.4455, 398.6055
231.9276, 496.1445
232.4098, 694.9102
232.8919, 895.8594
233.3740, 1003.547
233.8561, 960.2891
234.3382, 942.4375
234.8203, 990.4844
235.3025, 1103.242
235.7846, 1177.836
236.2667, 1212.898
236.7488, 1213.156
237.2309, 1180.781
237.7130, 1111.008
238.1952, 1018.789
238.6773, 896.8828
239.1594, 745.5703
239.6415, 619.8906
240.1236, 513.6484
240.6057, 439.1953
241.0879, 412.1797
241.5700, 447.8984
242.0521, 496.0938
242.5342, 551.6328
243.0163, 614.3359
243.4984, 665.9766
243.9806, 688.3281
244.4627, 713.8594
244.9448, 777.1016
245.4269, 901.9453
245.9090, 1013.453
246.3911, 1089.625
246.8732, 1126.703
247.3554, 1186.141
247.8375, 1280.648
248.3196, 1381.289
248.8017, 1458.727
249.2838, 1497.953
249.7659, 1542.742
250.2481, 1612.102
250.7302, 1710.133
251.2123, 1765.094
251.6944, 1755.789
252.1765, 1732.156
252.6586, 1752.711
253.1408, 1864.227
253.6229, 1932.695
254.1050, 1920.625
254.5871, 1826.781
255.0692, 1761.773
255.5513, 1724.336
256.0334, 1719.578
256.5156, 1760.406
256.9977, 1877.430
257.4798, 1972.344
257.9619, 2025.094
258.4440, 2034.711
258.9261, 2008.180
259.4083, 1916.047
259.8904, 1818.891
260.3725, 1784.812
260.8546, 1836.281
261.3367, 1891.391
261.8188, 1943.906
262.3010, 1992.289
262.7831, 1968.914
263.2652, 1831.828
263.7473, 1684.617
264.2294, 1636.406
264.7115, 1717.039
265.1937, 1770.867
265.6758, 1765.055
266.1579, 1711.641
266.6400, 1683.422
267.1221, 1676.391
267.6042, 1684.719
268.0864, 1710.508
268.5685, 1763.594
269.0506, 1800.883
269.5327, 1813.570
270.0148, 1806.914
270.4969, 1814.555
270.9791, 1843.633
271.4612, 1866.047
271.9433, 1854.969
272.4254, 1810.102
272.9075, 1755.273
273.3896, 1683.086
273.8718, 1599.742
274.3539, 1555.461
274.8360, 1567.305
275.3181, 1594.930
275.8002, 1595.352
276.2823, 1556.164
276.7645, 1515.320
277.2466, 1476.164
277.7287, 1449.023
278.2108, 1486.992
278.6929, 1600.727
279.1750, 1699.203
279.6572, 1702.805
280.1393, 1610.383
280.6214, 1493.594
281.1035, 1342.523
281.5856, 1178.820
282.0677, 1098.984
282.5499, 1113.547
283.0320, 1156.477
283.5141, 1190.445
283.9962, 1216.133
284.4783, 1200.359
284.9604, 1126.383
285.4425, 1016.141
285.9247, 925.2109
286.4068, 854.4609
286.8889, 798.4688
287.3710, 754.1875
287.8531, 724.5781
288.3352, 713.6797
288.8174, 725.2891
289.2995, 742.6719
289.7816, 732.6250
290.2637, 696.3672
290.7458, 649.5078
291.2279, 599.5859
291.7101, 545.9922
292.1922, 481.1719
292.6743, 392.7031
293.1564, 314.0938
293.6385, 326.6797
294.1206, 421.5938
294.6028, 496.1172
295.0849, 466.1172
295.5670, 367.2188
296.0491, 302.5078
296.5312, 295.8281
297.0133, 302.6094
297.4955, 232.8203
297.9776, 110.4609
298.4597, 45.50000
298.9418, 153.0391
299.4239, 354.3047
299.9060, 494.2500
300.3882, 546.0391
300.8703, 571.6797
301.3524, 622.6250
301.8345, 697.5312
302.3166, 795.5234
302.7987, 935.9688
303.2809, 1087.906
303.7630, 1211.883
304.2451, 1299.336
304.7272, 1367.203
305.2093, 1430.281
305.6914, 1482.812
306.1736, 1511.203
306.6557, 1506.250
307.1378, 1477.242
307.6199, 1421.016
308.1020, 1335.109
308.5841, 1271.750
309.0663, 1301.375
309.5484, 1377.109
310.0305, 1421.750
310.5126, 1404.734
310.9947, 1348.586
311.4768, 1253.680
311.9590, 1121.500
312.4411, 1000.609
312.9232, 945.4844
313.4053, 909.7031
313.8874, 839.7422
314.3695, 662.5938
314.8516, 493.1484
315.3337, 402.7109
315.8159, 385.4688
316.2980, 361.2031
316.7801, 285.9375
317.2622, 193.1797
317.7443, 111.9453
318.2264, 58.32031
318.7086, 12.23438
319.1907, 28.36719
319.6728, 64.21875
320.1549, 101.8281
320.6370, 181.9219
321.1191, 240.0469
321.6013, 232.5703
322.0834, 49.20312
322.5655, 70.28125
323.0476, 32.21094
323.5297, 116.1953
324.0118, 213.4531
324.4940, 207.0547
324.9761, 166.0703
325.4582, 119.6719
325.9403, 53.29688
326.4224, 10.46875
326.9045, 13.11719
327.3867, 41.83594
327.8688, 50.59375
328.3509, 7.679688
328.8330, 26.64062
329.3151, 29.92188
329.7972, 21.57031
330.2794, 43.68750
330.7615, 3.515625
331.2436, 55.04688
331.7257, 56.82812
332.2078, 57.36719
332.6899, 140.6250
333.1721, 133.8359
333.6542, 8.867188
334.1363, 36.46875
334.6184, 43.14844
335.1005, 156.1406
335.5826, 187.9531
336.0648, 94.93750
336.5469, 24.95312
337.0290, 20.05469
337.5111, 79.00000
337.9932, 114.4375
338.4753, 127.2969
338.9575, 119.8438
339.4396, 84.57812
339.9217, 12.93750
340.4038, 30.61719
340.8859, 24.25781
341.3680, 17.52344
341.8502, 29.67188
342.3323, 8.632813
342.8144, 26.38281
343.2965, 76.87500
343.7786, 143.3203
344.2607, 157.0078
344.7429, 93.31250
345.2250, 2.695313
345.7071, 37.02344
346.1892, 7.796875
346.6713, 51.85156
347.1534, 141.9062
347.6355, 249.9922
348.1176, 320.6328
348.5998, 338.2812
349.0819, 345.6172
349.5640, 408.5234
350.0461, 516.1328
350.5282, 614.3203
351.0103, 682.7969
351.4925, 719.1016
351.9746, 703.9766
352.4567, 627.8750
352.9388, 562.1172
353.4209, 591.0547
353.9030, 681.4844
354.3852, 762.7812
354.8673, 813.8594
355.3494, 839.4062
355.8315, 826.1328
356.3136, 776.9141
356.7957, 757.7266
357.2779, 851.3125
357.7600, 988.3125
358.2421, 1080.242
358.7242, 1084.742
359.2063, 1053.352
359.6884, 991.4609
360.1706, 909.0469
360.6527, 856.2500
361.1348, 843.5000
361.6169, 874.9375
362.0990, 957.7656
362.5811, 1131.617
363.0633, 1293.688
363.5454, 1422.273
364.0275, 1514.664
364.5096, 1565.672
364.9917, 1507.375
365.4738, 1459.922
365.9560, 1489.125
366.4381, 1654.898
366.9202, 1768.523
367.4023, 1746.906
367.8844, 1679.070
368.3665, 1697.195
368.8487, 1915.984
369.3308, 2115.195
369.8129, 2231.242
370.2950, 2244.461
370.7771, 2307.852
371.2592, 2454.062
371.7414, 2625.312
372.2235, 2768.242
372.7056, 2865.055
373.1877, 2960.828
373.6698, 3039.391
374.1519, 3109.984
374.6341, 3290.531
375.1162, 3627.945
375.5983, 3973.719
376.0804, 4214.008
376.5625, 4321.617
377.0446, 4446.656
377.5267, 4605.328
378.0089, 4789.109
378.4910, 4972.688
378.9731, 5158.930
379.4552, 5342.555
379.9373, 5529.016
380.4194, 5716.875
380.9016, 5884.375
381.3837, 6016.086
381.8658, 6161.680
382.3479, 6412.039
382.8300, 6756.805
383.3121, 7110.328
383.7943, 7430.641
384.2764, 7729.734
384.7585, 8031.641
385.2406, 8329.602
385.7227, 8654.484
386.2048, 9053.094
386.6870, 9489.219
387.1691, 9889.344
387.6512, 10176.39
388.1333, 10452.90
388.6154, 10857.69
389.0975, 11365.89
389.5797, 11851.95
390.0618, 12214.25
390.5439, 12513.78
391.0260, 12809.20
391.5081, 13128.38
391.9902, 13431.29
392.4724, 13708.25
392.9545, 13950.99
393.4366, 14152.31
393.9187, 14294.57
394.4008, 14421.52
394.8829, 14565.44
395.3651, 14738.52
395.8472, 14867.87
396.3293, 14946.09
396.8114, 14970.04
397.2935, 14935.94
397.7756, 14782.20
398.2578, 14632.27
398.7399, 14525.24
399.2220, 14460.25
399.7041, 14330.09
400.1862, 14116.53
400.6683, 13853.38
401.1505, 13555.37
401.6326, 13168.23
402.1147, 12840.38
402.5968, 12597.13
403.0789, 12412.70
403.5610, 12217.05
404.0432, 12025.20
404.5253, 11811.51
405.0074, 11536.33
405.4895, 11162.67
405.9716, 10921.07
406.4537, 10847.01
406.9359, 10847.59
407.4180, 10775.66
407.9001, 10621.31
408.3822, 10505.30
408.8643, 10490.37
409.3464, 10546.58
409.8285, 10528.78
410.3106, 10429.24
410.7928, 10327.73
411.2749, 10302.66
411.7570, 10339.16
412.2391, 10380.69
412.7212, 10416.22
413.2033, 10449.32
413.6855, 10482.42
414.1676, 10515.31
414.6497, 10550.54
415.1318, 10567.63
415.6139, 10594.87
416.0960, 10677.63
416.5782, 10834.30
417.0603, 10986.06
417.5424, 11084.82
418.0245, 11134.86
418.5066, 11143.97
418.9887, 11053.23
419.4709, 10975.31
419.9530, 10997.86
420.4351, 11122.91
420.9172, 11192.40
421.3993, 11100.20
421.8814, 10957.89
422.3636, 10854.87
422.8457, 10858.38
423.3278, 10849.18
423.8099, 10818.88
424.2920, 10765.95
424.7741, 10679.92
425.2563, 10541.09
425.7384, 10388.75
426.2205, 10237.05
426.7026, 10079.72
427.1847, 9937.883
427.6668, 9812.305
428.1490, 9700.406
428.6311, 9603.156
429.1132, 9530.188
429.5953, 9440.633
430.0774, 9325.172
430.5595, 9183.164
431.0417, 9006.383
431.5238, 8786.453
432.0059, 8559.047
432.4880, 8370.852
432.9701, 8219.445
433.4522, 8012.594
433.9344, 7722.078
434.4165, 7386.781
434.8986, 7051.617
435.3807, 6721.719
435.8628, 6442.367
436.3449, 6286.516
436.8271, 6192.164
437.3092, 6019.289
437.7913, 5751.992
438.2734, 5482.398
438.7555, 5302.984
439.2376, 5179.961
439.7197, 5052.586
440.2018, 4917.234
440.6840, 4750.805
441.1661, 4499.367
441.6482, 4181.852
442.1303, 3914.930
442.6124, 3803.242
443.0945, 3734.773
443.5767, 3624.023
444.0588, 3430.109
444.5409, 3238.156
445.0230, 3090.148
445.5051, 2957.875
445.9872, 2787.547
446.4694, 2499.008
446.9515, 2243.812
447.4336, 2076.891
447.9157, 2014.578
448.3978, 1944.344
448.8799, 1871.711
449.3621, 1787.867
449.8442, 1682.508
450.3263, 1542.547
450.8084, 1411.125
451.2905, 1283.812
451.7726, 1170.086
452.2548, 1114.797
452.7369, 1134.789
453.2190, 1147.297
453.7011, 1090.688
454.1832, 967.4219
454.6653, 898.7734
455.1475, 900.5859
455.6296, 913.3516
456.1117, 856.4219
456.5938, 739.7578
457.0759, 614.7188
457.5580, 489.8828
458.0402, 376.7734
458.5223, 305.6953
459.0044, 272.6328
459.4865, 235.1641
459.9686, 156.6562
460.4507, 58.80469
460.9329, 38.14062
461.4150, 140.6406
461.8971, 209.8516
462.3792, 195.1094
462.8613, 132.0078
463.3434, 86.83594
463.8256, 120.2109
464.3077, 148.1484
464.7898, 118.7812
465.2719, 22.56250
465.7540, 42.77344
466.2361, 14.50000
466.7183, 27.53125
467.2004, 22.15625
467.6825, 93.63281
468.1646, 178.0312
468.6467, 203.2812
469.1288, 191.8594
469.6109, 224.9297
470.0930, 354.1641
470.5752, 430.6328
471.0573, 359.7031
471.5394, 106.7031
472.0215, 15.38281
472.5036, 137.9688
472.9857, 308.5781
473.4679, 301.3125
473.9500, 115.4453
474.4321, 10.71875
474.9142, 95.68750
475.3963, 264.0703
475.8784, 243.2578
476.3606, 50.88281
476.8427, 120.4453
477.3248, 113.4688
477.8069, 2.867188
478.2890, 111.8984
478.7711, 203.0391
479.2533, 288.1250
479.7354, 375.7188
480.2175, 458.2578
480.6996, 524.3047
481.1817, 537.4297
481.6638, 561.2891
482.1460, 642.1797
482.6281, 770.2656
483.1102, 883.1094
483.5923, 886.5781
484.0744, 907.4766
484.5565, 1035.406
485.0387, 1387.492
485.5208, 1650.734
486.0029, 1733.438
486.4850, 1728.312
486.9671, 1775.820
487.4492, 1941.383
487.9314, 2058.289
488.4135, 2078.352
488.8956, 2008.562
489.3777, 1962.953
489.8598, 1951.258
490.3419, 1951.688
490.8241, 1951.070
491.3062, 1949.906
491.7883, 1941.812
492.2704, 1923.383
492.7525, 1913.328
493.2346, 1952.438
493.7168, 2031.797
494.1989, 2096.469
494.6810, 2106.070
495.1631, 2090.922
495.6452, 2113.102
496.1273, 2166.312
496.6095, 2199.508
497.0916, 2152.781
497.5737, 2076.656
498.0558, 2033.391
498.5379, 2053.445
499.0201, 2068.375
499.5022, 2048.891
499.9843, 1999.805
500.4664, 1930.352
500.9485, 1806.812
501.4306, 1710.742
501.9127, 1687.000
502.3948, 1739.320
502.8770, 1754.266
503.3591, 1698.875
503.8412, 1618.305
504.3233, 1541.391
504.8054, 1464.398
505.2875, 1398.711
505.7697, 1339.242
506.2518, 1289.047
506.7339, 1270.242
507.2160, 1297.383
507.6981, 1293.008
508.1802, 1208.234
508.6624, 1059.445
509.1445, 981.1250
509.6266, 982.1641
510.1087, 980.5547
510.5908, 879.7422
511.0729, 714.6172
511.5551, 594.7422
512.0372, 553.2188
512.5193, 541.7188
513.0014, 494.5156
513.4835, 432.3438
513.9656, 408.6797
514.4478, 502.3828
514.9299, 605.4688
515.4120, 623.7734
515.8941, 552.0859
516.3762, 499.3594
516.8583, 527.3281
517.3405, 581.2734
517.8226, 618.2109
518.3047, 610.7109
518.7868, 600.2656
519.2689, 570.0703
519.7510, 543.1484
520.2332, 574.2969
520.7153, 730.4062
521.1974, 833.4219
521.6795, 822.4062
522.1616, 700.2109
522.6437, 582.5234
523.1259, 465.2578
523.6080, 366.6172
524.0901, 296.3906
524.5722, 255.7891
525.0543, 278.3828
525.5364, 386.5156
526.0186, 511.2891
526.5007, 544.1875
526.9828, 499.3906
527.4649, 442.7812
527.9470, 390.4219
528.4291, 349.3828
528.9113, 340.0312
529.3934, 357.1172
529.8755, 357.2969
530.3576, 288.6172
530.8397, 205.3281
531.3218, 158.4141
531.8040, 176.9141
532.2861, 185.1562
532.7682, 147.7578
533.2503, 89.30469
533.7324, 44.02344
534.2145, 45.93750
534.6967, 31.00000
535.1788, 14.03125
535.6609, 84.46875
536.1430, 157.4219
536.6251, 248.6562
537.1072, 312.2891
537.5894, 313.5625
538.0715, 241.7422
538.5536, 179.4766
539.0357, 131.0469
539.5178, 92.43750
539.9999, 64.79688
540.4821, 46.77344
540.9642, 11.34375
541.4463, 60.60156
541.9284, 141.7969
542.4105, 176.5625
542.8926, 173.3828
543.3748, 182.1875
543.8569, 234.2266
544.3390, 309.8125
544.8211, 407.8984
545.3032, 537.6016
545.7853, 614.4453
546.2675, 563.6875
546.7495, 456.2031
547.2316, 359.3828
547.7137, 260.7422
548.1959, 208.0938
548.6780, 255.8984
549.1601, 358.2344
549.6422, 381.3828
550.1243, 264.6172
550.6064, 160.8438
551.0886, 123.0547
551.5707, 153.6094
552.0528, 151.4219
552.5349, 103.5938
553.0170, 58.82031
553.4991, 72.81250
553.9813, 139.9141
554.4634, 163.4219
554.9455, 118.3516
555.4276, 57.53125
555.9097, 60.89062
556.3918, 113.4609
556.8740, 166.6484
557.3561, 234.0547
557.8382, 269.3750
558.3203, 190.1797
558.8024, 19.39844
559.2845, 103.3906
559.7667, 93.64844
560.2488, 16.77344
560.7309, 92.73438
561.2130, 250.0938
561.6951, 369.4844
562.1772, 402.1484
562.6594, 400.4297
563.1415, 426.0703
563.6236, 509.1875
564.1057, 569.6328
564.5878, 594.5859
565.0699, 588.4766
565.5521, 565.6719
566.0342, 513.4531
566.5163, 490.3750
566.9984, 535.7734
567.4805, 640.1562
567.9626, 740.4844
568.4448, 841.2734
568.9269, 905.6406
569.4090, 871.2891
569.8911, 783.4297
570.3732, 735.2188
570.8553, 757.3359
571.3375, 791.1641
571.8196, 771.8594
572.3017, 727.5312
572.7838, 708.5391
573.2659, 804.9453
573.7480, 864.4141
574.2302, 762.2422
574.7123, 519.0781
575.1944, 400.4531
575.6765, 613.3203
576.1586, 824.6719
576.6407, 874.5625
577.1229, 694.9297
577.6050, 586.3359
578.0871, 574.3828
578.5692, 600.7500
579.0513, 589.3125
579.5334, 535.2344
580.0156, 522.8594
580.4977, 578.5156
580.9798, 671.5000
581.4619, 751.1953
581.9440, 816.6094
582.4261, 862.9531
582.9083, 864.5938
583.3904, 853.2656
583.8725, 875.5156
584.3546, 927.8281
584.8367, 977.2969
585.3188, 988.4297
585.8010, 997.7734
586.2831, 1043.266
586.7652, 1157.844
587.2473, 1248.781
587.7294, 1300.672
588.2115, 1312.625
588.6937, 1281.375
589.1758, 1163.547
589.6579, 1073.359
590.1400, 1046.016
590.6221, 1058.297
591.1042, 999.4766
591.5864, 837.7812
592.0685, 717.9453
592.5506, 733.6406
593.0327, 863.9062
593.5148, 956.0156
593.9969, 1013.195
594.4791, 1005.523
594.9612, 858.9375
595.4433, 642.9297
595.9254, 496.5469
596.4075, 457.6953
596.8896, 458.2812
597.3718, 469.1719
597.8539, 476.9375
598.3360, 459.4219
598.8181, 374.4375
599.3002, 301.8906
599.7823, 258.5938
600.2645, 244.2812
600.7466, 274.1016
601.2287, 412.4453
601.7108, 521.4375
602.1929, 523.1016
602.6750, 383.9141
603.1572, 397.1016
603.6393, 626.3359
604.1214, 865.8281
604.6035, 896.0078
605.0856, 726.6406
605.5677, 614.6562
606.0499, 610.3594
606.5320, 638.7109
607.0141, 573.7031
607.4962, 449.5234
607.9783, 365.0391
608.4604, 402.1953
608.9425, 463.8438
609.4246, 472.3359
609.9067, 435.5312
610.3889, 388.1719
610.8710, 319.3984
611.3531, 267.6406
611.8352, 263.5703
612.3173, 323.5859
612.7994, 349.3125
613.2816, 319.9453
613.7637, 275.4453
614.2458, 247.9766
614.7279, 247.6797
615.2100, 234.8750
615.6921, 206.6719
616.1743, 163.0859
616.6564, 92.78125
617.1385, 1.812500
617.6206, 78.84375
618.1027, 125.4219
618.5848, 140.3125
619.0670, 114.1719
619.5491, 56.67188
620.0312, 2.250000
620.5133, 48.72656
620.9954, 86.76562
621.4775, 105.7891
621.9597, 102.1094
622.4418, 136.9609
622.9239, 312.3984
623.4060, 478.4375
623.8881, 525.5312
624.3702, 336.3750
624.8524, 218.7188
625.3345, 215.6484
625.8166, 250.8281
626.2987, 206.9375
626.7808, 58.37500
627.2629, 36.03125
627.7451, 27.23438
628.2272, 39.99219
628.7093, 64.00781
629.1914, 47.92969
629.6735, 16.59375
630.1556, 25.78125
630.6378, 69.89844
631.1199, 104.1875
631.6020, 128.2969
632.0841, 143.5156
632.5662, 141.2344
633.0483, 138.6797
633.5305, 141.4375
634.0126, 151.3203
634.4947, 177.5859
634.9768, 257.6016
635.4589, 336.9922
635.9410, 358.6250
636.4232, 280.8516
636.9053, 237.4531
637.3874, 255.3359
637.8695, 304.3828
638.3516, 315.0938
638.8337, 284.7891
639.3159, 271.2812
639.7980, 306.6016
640.2801, 365.4141
640.7622, 397.6328
641.2443, 402.4688
641.7264, 379.9688
642.2086, 302.1016
642.6907, 211.0469
643.1728, 148.2109
643.6549, 114.9297
644.1370, 91.09375
644.6191, 80.95312
645.1013, 65.03125
645.5834, 26.57031
646.0655, 74.74219
646.5476, 127.6094
647.0297, 70.85156
647.5118, 8.125000
647.9940, 93.81250
648.4761, 368.2734
648.9582, 594.9531
649.4403, 721.8828
649.9224, 775.3516
650.4045, 819.6953
650.8867, 853.4688
651.3688, 865.1562
651.8509, 805.6172
652.3330, 745.5781
652.8151, 799.5312
653.2972, 950.5000
653.7794, 1089.297
654.2615, 1169.773
654.7436, 1213.188
655.2257, 1222.156
655.7078, 1185.930
656.1899, 1182.180
656.6721, 1267.742
657.1542, 1355.180
657.6363, 1372.062
658.1184, 1274.047
658.6005, 1249.461
659.0826, 1329.328
659.5648, 1450.742
660.0469, 1528.672
660.5290, 1561.859
661.0111, 1561.320
661.4932, 1505.625
661.9753, 1456.453
662.4575, 1531.141
662.9396, 1695.539
663.4217, 1841.203
663.9038, 1905.023
664.3859, 1945.094
664.8680, 1984.211
665.3502, 2028.125
665.8323, 2104.492
666.3144, 2252.836
666.7965, 2406.906
667.2786, 2518.867
667.7607, 2559.320
668.2429, 2712.492
668.7250, 3030.414
669.2071, 3352.859
669.6892, 3515.352
670.1713, 3522.703
670.6534, 3601.344
671.1355, 3789.883
671.6176, 3980.664
672.0997, 4007.781
672.5818, 3937.672
673.0640, 3919.117
673.5461, 4023.062
674.0282, 4166.109
674.5103, 4338.836
674.9924, 4511.727
675.4745, 4622.250
675.9567, 4599.539
676.4388, 4580.945
676.9209, 4602.891
677.4030, 4667.992
677.8851, 4780.398
678.3672, 4950.891
678.8494, 5137.562
679.3315, 5318.164
679.8136, 5489.016
680.2957, 5667.562
680.7778, 5842.516
681.2599, 6052.305
681.7421, 6352.320
682.2242, 6696.664
682.7063, 6978.727
683.1884, 7175.719
683.6705, 7394.742
684.1526, 7771.914
684.6348, 8178.336
685.1169, 8478.203
685.5990, 8527.320
686.0811, 8649.391
686.5632, 8980.461
687.0453, 9378.828
687.5275, 9643.102
688.0096, 9684.320
688.4917, 9829.148
688.9738, 10175.09
689.4559, 10638.00
689.9380, 10987.27
690.4202, 11229.18
690.9023, 11502.80
691.3844, 11860.52
691.8665, 12288.71
692.3486, 12780.55
692.8307, 13331.30
693.3129, 13913.78
693.7950, 14572.41
694.2771, 15219.62
694.7592, 15757.88
695.2413, 16163.26
695.7234, 16662.09
696.2056, 17395.21
696.6877, 18137.46
697.1698, 18748.30
697.6519, 19161.50
698.1340, 19700.11
698.6161, 20390.36
699.0983, 21156.63
699.5804, 21914.48
700.0625, 22674.19
700.5446, 23509.64
701.0267, 24438.48
701.5089, 25423.28
701.9910, 26412.86
702.4731, 27432.52
702.9552, 28526.48
703.4373, 29735.32
703.9194, 30993.28
704.4016, 32268.35
704.8837, 33579.09
705.3658, 34976.64
705.8479, 36473.55
706.3300, 38039.85
706.8121, 39681.25
707.2943, 41401.03
707.7764, 43188.21
708.2585, 45061.88
708.7406, 46930.45
709.2227, 48682.70
709.7048, 50394.14
710.1870, 52253.09
710.6691, 54271.39
711.1512, 56334.23
711.6333, 58414.34
712.1154, 60532.47
712.5975, 62689.31
713.0797, 64901.14
713.5618, 67124.88
714.0439, 69377.20
714.5260, 71587.12
715.0081, 73714.28
715.4902, 75678.66
715.9724, 77663.75
716.4545, 79681.16
716.9366, 81664.10
717.4187, 83518.80
717.9008, 85257.23
718.3829, 86846.53
718.8651, 88316.42
719.3472, 89586.44
719.8293, 90586.23
720.3114, 91346.35
720.7935, 91955.34
721.2756, 92583.23
721.7578, 92893.73
722.2399, 92642.21
722.7220, 91951.88
723.2041, 91118.77
723.6862, 90307.16
724.1683, 89185.23
724.6505, 87633.50
725.1326, 85736.95
725.6147, 83809.70
726.0968, 81877.91
726.5789, 79808.41
727.0610, 77477.68
727.5432, 74988.58
728.0253, 72634.34
728.5074, 70405.54
728.9895, 68125.59
729.4716, 65624.14
729.9537, 63075.02
730.4359, 60634.05
730.9180, 58302.13
731.4000, 56113.70
731.8821, 54202.80
732.3643, 52318.99
732.8464, 50271.06
733.3285, 47950.44
733.8106, 45886.75
734.2927, 44133.72
734.7748, 42528.41
735.2570, 40903.03
735.7391, 39263.34
736.2212, 37672.59
736.7033, 36135.20
737.1854, 34670.77
737.6675, 33326.31
738.1497, 32062.16
738.6318, 30787.66
739.1139, 29418.75
739.5960, 28166.64
740.0781, 27210.59
740.5602, 26393.88
741.0424, 25480.45
741.5245, 24307.55
742.0066, 23299.40
742.4887, 22556.06
742.9708, 21970.73
743.4529, 21294.78
743.9351, 20522.59
744.4172, 19813.46
744.8993, 19229.17
745.3814, 18709.76
745.8635, 18172.30
746.3456, 17614.72
746.8278, 17043.62
747.3099, 16448.30
747.7920, 15856.89
748.2741, 15286.35
748.7562, 14733.90
749.2383, 14195.44
749.7205, 13715.35
750.2026, 13202.36
750.6847, 12621.16
751.1668, 11982.08
751.6489, 11415.63
752.1310, 10925.78
752.6132, 10490.73
753.0953, 10111.87
753.5774, 9776.211
754.0595, 9464.258
754.5416, 9170.391
755.0237, 8903.234
755.5059, 8700.055
755.9880, 8494.383
756.4701, 8218.133
756.9522, 7846.484
757.4343, 7487.039
757.9164, 7172.578
758.3986, 6857.867
758.8807, 6502.023
759.3628, 6079.516
759.8449, 5754.242
760.3270, 5549.016
760.8091, 5390.414
761.2913, 5228.828
761.7734, 5057.773
762.2555, 4829.336
762.7376, 4525.312
763.2197, 4236.922
763.7018, 4045.938
764.1840, 3911.875
764.6661, 3785.109
765.1482, 3653.961
765.6303, 3529.633
766.1124, 3395.719
766.5945, 3273.406
767.0767, 3190.500
767.5588, 3150.602
768.0409, 3123.008
768.5230, 3112.930
769.0051, 3082.547
769.4872, 2930.164
769.9694, 2690.891
770.4515, 2531.008
770.9336, 2546.211
771.4157, 2589.219
771.8978, 2555.430
772.3799, 2452.016
772.8621, 2293.711
773.3442, 2009.789
773.8263, 1764.453
774.3084, 1626.102
774.7905, 1552.242
775.2726, 1432.367
775.7548, 1255.078
776.2369, 1082.969
776.7190, 932.3594
777.2011, 806.7109
777.6832, 723.8203
778.1653, 678.3281
778.6475, 640.3125
779.1296, 590.6641
779.6117, 542.1953
780.0938, 511.1953
780.5759, 490.7656
781.0580, 453.5938
781.5402, 406.1016
782.0223, 317.7656
782.5044, 148.1953
782.9865, 85.11719
783.4686, 217.0078
783.9507, 223.3438
784.4329, 222.0234
784.9150, 269.4531
785.3971, 353.6562
785.8792, 442.1562
786.3613, 531.9141
786.8434, 604.5547
787.3256, 640.7109
787.8077, 655.4141
788.2898, 652.8516
788.7719, 633.6016
789.2540, 626.4844
789.7361, 694.1484
790.2183, 721.0312
790.7004, 639.3594
791.1825, 439.1953
791.6646, 331.3984
792.1467, 335.4141
792.6288, 356.5391
793.1110, 325.2734
793.5930, 261.2031
794.0751, 216.0781
794.5573, 193.2734
795.0394, 163.5859
795.5215, 108.0078
796.0036, 35.88281
796.4857, 67.72656
796.9678, 229.9297
797.4500, 289.0234
797.9321, 146.4922
798.4142, 8.078125
798.8963, 60.43750
799.3784, 1.523438
799.8605, 97.73438
800.3427, 235.0234
800.8248, 374.2031
801.3069, 471.8750
801.7890, 547.6719
802.2711, 636.1875
802.7532, 739.0078
803.2354, 873.5625
803.7175, 1099.391
804.1996, 1331.891
804.6817, 1490.172
805.1638, 1490.953
805.6459, 1590.703
806.1281, 1840.508
806.6102, 2124.328
807.0923, 2305.062
807.5744, 2385.898
808.0565, 2634.328
808.5386, 3093.945
809.0208, 3558.852
809.5029, 3760.039
809.9850, 3837.203
810.4671, 4013.352
810.9492, 4357.469
811.4313, 4706.258
811.9135, 4963.422
812.3956, 5209.047
812.8777, 5516.734
813.3598, 5880.289
813.8419, 6334.109
814.3240, 6927.383
814.8062, 7521.227
815.2883, 7921.422
815.7704, 8167.164
816.2525, 8508.164
816.7346, 8984.711
817.2167, 9544.516
817.6989, 10197.57
818.1810, 10882.38
818.6631, 11511.02
819.1452, 11996.01
819.6273, 12577.74
820.1094, 13382.93
820.5916, 14257.15
821.0737, 15048.71
821.5558, 15708.92
822.0379, 16488.57
822.5200, 17418.75
823.0021, 18423.05
823.4843, 19397.70
823.9664, 20375.17
824.4485, 21482.38
824.9306, 22784.91
825.4127, 24098.77
825.8948, 25237.66
826.3770, 26343.16
826.8591, 27586.29
827.3412, 29070.23
827.8233, 30574.01
828.3054, 32105.79
828.7875, 33626.20
829.2697, 35045.13
829.7518, 36379.42
830.2339, 37759.99
830.7160, 39240.69
831.1981, 40713.50
831.6802, 42086.34
832.1624, 43373.58
832.6445, 44580.95
833.1266, 45739.72
833.6087, 46757.23
834.0908, 47637.62
834.5729, 48329.74
835.0551, 48820.24
835.5372, 49140.48
836.0193, 49167.82
836.5014, 48905.34
836.9835, 48329.88
837.4656, 47384.71
837.9478, 46104.34
838.4299, 44571.44
838.9120, 42767.12
839.3941, 40801.80
839.8762, 38710.08
840.3583, 36527.34
840.8405, 34265.14
841.3226, 31809.52
841.8047, 29548.91
842.2868, 27545.15
842.7689, 25692.82
843.2510, 23915.16
843.7332, 22209.54
844.2153, 20611.15
844.6974, 19122.72
845.1795, 17740.49
845.6616, 16498.88
846.1437, 15362.35
846.6259, 14285.60
847.1080, 13256.51
847.5901, 12283.06
848.0722, 11364.15
848.5543, 10508.67
849.0364, 9734.836
849.5186, 9073.383
850.0007, 8378.484
850.4828, 7628.305
850.9649, 6911.953
851.4470, 6342.242
851.9291, 5880.414
852.4113, 5360.531
852.8934, 4758.492
853.3755, 4228.367
853.8576, 3909.195
854.3397, 3691.305
854.8218, 3474.133
855.3039, 3244.398
855.7860, 3032.734
856.2681, 2818.320
856.7502, 2649.414
857.2324, 2570.719
857.7145, 2579.820
858.1966, 2565.578
858.6787, 2523.391
859.1608, 2510.594
859.6429, 2589.906
860.1251, 2696.992
860.6072, 2757.203
861.0893, 2767.984
861.5714, 2784.273
862.0535, 2801.016
862.5356, 2841.969
863.0178, 2915.062
863.4999, 3015.578
863.9820, 3163.797
864.4641, 3369.852
864.9462, 3583.203
865.4283, 3761.547
865.9105, 3920.422
866.3926, 4110.656
866.8747, 4329.031
867.3568, 4527.391
867.8389, 4591.812
868.3210, 4694.891
868.8032, 4997.766
869.2853, 5519.445
869.7674, 5869.945
870.2495, 5977.539
870.7316, 6064.250
871.2137, 6220.094
871.6959, 6438.977
872.1780, 6730.188
872.6601, 7080.516
873.1422, 7355.422
873.6243, 7447.148
874.1064, 7449.945
874.5886, 7458.641
875.0707, 7454.359
875.5528, 7339.773
876.0349, 7078.094
876.5170, 6703.406
876.9991, 6186.734
877.4813, 5567.805
877.9634, 4990.461
878.4455, 4454.320
878.9276, 4000.367
879.4097, 3698.648
879.8918, 3440.164
880.3740, 3048.438
880.8561, 2587.867
881.3382, 2219.062
881.8203, 2085.906
882.3024, 1962.344
882.7845, 1759.570
883.2667, 1529.680
883.7488, 1378.492
884.2309, 1316.391
884.7130, 1278.148
885.1951, 1256.336
885.6772, 1234.227
886.1594, 1185.219
886.6415, 1115.367
887.1236, 1033.797
887.6057, 910.2734
888.0878, 832.4688
888.5699, 897.5625
889.0521, 1009.750
889.5342, 1032.172
890.0163, 915.4922
890.4984, 829.0234
890.9805, 776.8359
891.4626, 773.1016
891.9448, 875.0312
892.4269, 1040.945
892.9090, 1138.086
893.3911, 1131.750
893.8732, 1088.508
894.3553, 1020.945
894.8375, 954.1719
895.3196, 910.3750
895.8017, 882.3594
896.2838, 906.2812
896.7659, 1019.953
897.2480, 1118.688
897.7302, 1120.305
898.2123, 1033.281
898.6944, 877.9141
899.1765, 659.4531
899.6586, 482.7031
900.1407, 489.5938
900.6229, 539.6875
901.1050, 506.3438
901.5871, 373.1953
902.0692, 257.8984
902.5513, 178.0625
903.0334, 110.6484
903.5156, 42.57812
903.9977, 24.64062
904.4798, 75.24219
904.9619, 110.3438
905.4440, 108.6641
905.9261, 13.67969
906.4083, 88.38281
906.8904, 107.1562
907.3725, 55.50781
907.8546, 1.398438
908.3367, 59.74219
908.8188, 101.0000
909.3010, 110.6797
909.7831, 104.4609
910.2652, 144.8125
910.7473, 231.2969
911.2294, 261.9922
911.7115, 176.1562
912.1937, 58.76562
912.6758, 3.601563
913.1579, 1.632813
913.6400, 17.29688
914.1221, 90.00781
914.6042, 138.5469
915.0864, 126.7031
915.5685, 100.1953
916.0506, 134.6328
916.5327, 240.2422
917.0148, 255.5000
917.4969, 138.3828
917.9790, 8.734375
918.4611, 18.95312
918.9432, 98.25781
919.4254, 148.1953
919.9075, 149.6328
920.3896, 110.2578
920.8717, 16.67188
921.3538, 104.5938
921.8359, 236.9062
922.3181, 381.2344
922.8002, 525.7422
923.2823, 671.2734
923.7644, 783.5312
924.2465, 778.5078
924.7286, 741.9141
925.2108, 827.0469
925.6929, 1031.258
926.1750, 1191.547
926.6571, 1246.508
927.1392, 1234.383
927.6213, 1145.891
928.1035, 1001.289
928.5856, 945.4453
929.0677, 988.2891
929.5498, 1060.047
930.0319, 1169.805
930.5140, 1257.266
930.9962, 1167.453
931.4783, 973.0781
931.9604, 879.7109
932.4425, 1141.273
932.9246, 1311.383
933.4067, 1177.906
933.8889, 904.4688
934.3710, 755.8594
934.8531, 746.2188
935.3352, 772.1016
935.8173, 822.8047
936.2994, 873.2500
936.7816, 887.0781
937.2637, 880.3516
937.7458, 883.9688
938.2279, 918.5938
938.7100, 924.6172
939.1921, 812.7109
939.6743, 717.5391
940.1564, 764.7656
940.6385, 1001.078
941.1206, 1097.898
941.6027, 1043.656
942.0848, 928.6562
942.5670, 796.9844
943.0491, 670.3516
943.5312, 576.3359
944.0133, 516.9531
944.4954, 479.4766
944.9775, 470.1250
945.4597, 473.6875
945.9418, 494.4688
946.4239, 525.9688
946.9060, 504.6875
947.3881, 427.3359
947.8702, 372.9844
948.3524, 393.4375
948.8345, 440.4219
949.3166, 439.2188
949.7987, 412.7500
950.2808, 414.3672
950.7629, 499.7266
951.2451, 566.8594
951.7272, 583.5703
952.2093, 576.9219
952.6914, 594.2109
953.1735, 635.7578
953.6556, 641.5469
954.1378, 590.3906
954.6199, 545.6562
955.1020, 605.3516
955.5841, 698.7969
956.0662, 728.6719
956.5483, 653.6875
957.0305, 601.8359
957.5126, 614.8750
957.9947, 636.2578
958.4768, 626.9453
958.9589, 588.5547
959.4410, 588.6172
959.9232, 627.1953
960.4053, 658.4688
960.8874, 628.2891
961.3695, 590.6719
961.8516, 598.1016
962.3337, 646.0469
962.8159, 696.9922
963.2980, 740.5859
963.7801, 807.1797
964.2622, 938.1328
964.7443, 1063.453
965.2264, 945.6719
965.7086, 627.6484
966.1907, 400.0156
966.6728, 382.9453
967.1549, 445.3750
967.6370, 551.5000
968.1191, 642.8359
968.6013, 632.5703
969.0834, 420.2031
969.5655, 278.1250
970.0476, 210.2266
970.5297, 208.3047
971.0118, 310.7188
971.4940, 473.8750
971.9761, 517.3125
972.4582, 428.6328
972.9403, 338.3281
973.4224, 326.5469
973.9045, 343.6562
974.3867, 350.5938
974.8688, 352.7344
975.3509, 413.5156
975.8330, 568.0156
976.3151, 647.0547
976.7972, 526.4219
977.2794, 318.9609
977.7615, 261.9062
978.2435, 328.7266
978.7256, 431.2500
979.2078, 563.4922
979.6899, 674.1094
980.1720, 748.8672
980.6541, 785.6562
981.1362, 787.0156
981.6183, 754.1484
982.1005, 660.1562
982.5826, 486.8047
983.0647, 326.0000
983.5468, 309.7656
984.0289, 367.7422
984.5110, 399.0312
984.9932, 389.6328
985.4753, 352.6406
985.9574, 243.4609
986.4395, 158.9531
986.9216, 159.9219
987.4037, 237.7734
987.8859, 263.5312
988.3680, 237.1094
988.8501, 187.8906
989.3322, 45.68750
989.8143, 42.48438
990.2964, 177.7344
990.7786, 572.4609
991.2607, 755.0469
991.7428, 485.4375
992.2249, 234.2031
992.7070, 40.42969
993.1891, 77.21875
993.6713, 40.46875
994.1534, 110.0859
994.6355, 174.5312
995.1176, 93.75000
995.5997, 28.51562
996.0818, 147.4375
996.5640, 298.5000
997.0461, 320.8281
997.5282, 160.0781
998.0103, 139.4531
998.4924, 299.4531
998.9745, 468.2500
999.4567, 525.9844
999.9388, 515.6797
1000.421, 542.2500
1000.903, 592.9375
1001.385, 613.3359
1001.867, 515.0859
1002.349, 449.6719
1002.831, 501.7188
1003.314, 612.8516
1003.796, 679.1172
1004.278, 700.9062
1004.760, 671.8594
1005.242, 577.0391
1005.724, 485.4141
1006.206, 520.3203
1006.688, 588.9922
1007.171, 557.0156
1007.653, 360.4766
1008.135, 205.9219
1008.617, 109.5469
1009.099, 72.90625
1009.581, 114.1406
1010.063, 227.1562
1010.545, 316.3516
1011.027, 377.4766
1011.510, 413.0625
1011.992, 417.7422
1012.474, 403.7422
1012.956, 362.1875
1013.438, 307.1641
1013.920, 284.5000
1014.402, 305.1875
1014.884, 324.2266
1015.367, 334.5000
1015.849, 341.6328
1016.331, 380.0938
1016.813, 416.5859
1017.295, 359.6562
1017.777, 162.8828
1018.259, 17.05469
1018.741, 53.30469
1019.223, 119.3516
1019.706, 116.7969
1020.188, 45.42969
1020.670, 27.63281
1021.152, 64.35938
1021.634, 142.0938
1022.116, 296.8125
1022.598, 448.1953
1023.080, 483.9375
1023.563, 445.3828
1024.045, 459.7812
1024.527, 612.9766
1025.009, 713.3203
1025.491, 727.6094
1025.973, 698.2656
1026.455, 663.7891
1026.937, 636.7344
1027.419, 678.5312
1027.901, 814.2109
1028.384, 885.4766
1028.866, 706.3750
1029.348, 497.9297
1029.830, 431.2969
1030.312, 509.7344
1030.794, 602.3438
1031.276, 724.9219
1031.758, 779.7188
1032.241, 673.9453
1032.723, 513.4062
1033.205, 442.6562
1033.687, 442.5547
1034.169, 463.7031
1034.651, 517.0234
1035.133, 545.9766
1035.615, 519.0547
1036.098, 489.8594
1036.580, 543.3438
1037.062, 658.8516
1037.544, 702.4609
1038.026, 653.4766
1038.508, 605.2891
1038.990, 631.6016
1039.472, 678.9922
1039.954, 726.2812
1040.437, 767.7500
1040.919, 716.1797
1041.401, 535.2344
1041.883, 431.7344
1042.365, 539.0703
1042.847, 697.5000
1043.329, 591.4453
1043.811, 331.5469
1044.293, 150.1094
1044.776, 188.0703
1045.258, 206.6875
1045.740, 135.6953
1046.222, 58.31250
1046.704, 61.42188
1047.186, 137.7500
1047.668, 134.5781
1048.150, 50.27344
1048.633, 13.39844
1049.115, 3.710938
1049.597, 79.11719
1050.079, 231.8047
1050.561, 438.5156
1051.043, 581.7344
1051.525, 666.3281
1052.007, 649.4062
1052.490, 471.3516
1052.972, 293.4453
1053.454, 432.0000
1053.936, 731.9688
1054.418, 893.5312
1054.900, 795.6484
1055.382, 710.9453
1055.864, 709.3438
1056.346, 737.9531
1056.828, 775.2734
1057.311, 817.1094
1057.793, 814.2266
1058.275, 772.8516
1058.757, 767.4844
1059.239, 951.9297
1059.721, 1082.281
1060.203, 949.1562
1060.685, 652.0391
1061.168, 423.0391
1061.650, 277.9453
1062.132, 200.6641
1062.614, 205.7031
1063.096, 228.3359
1063.578, 175.8438
1064.060, 99.26562
1064.542, 90.75000
1065.025, 165.1641
1065.507, 210.7500
1065.989, 191.2031
1066.471, 133.1016
1066.953, 20.26562
1067.435, 114.3672
1067.917, 135.9219
1068.399, 62.60938
1068.881, 4.265625
1069.364, 21.46875
1069.846, 32.07812
1070.328, 50.69531
1070.810, 82.21875
1071.292, 131.5625
1071.774, 202.4062
1072.256, 271.5625
1072.738, 340.7422
1073.220, 369.6250
1073.703, 262.6172
1074.185, 134.6250
1074.667, 160.3359
1075.149, 307.5703
1075.631, 399.7188
1076.113, 377.8750
1076.595, 326.3203
1077.077, 255.0938
1077.559, 173.3828
1078.042, 92.67969
1078.524, 16.91406
1079.006, 46.47656
1079.488, 91.57812
1079.970, 139.8281
1080.452, 243.3359
1080.934, 309.0469
1081.416, 265.8125
1081.899, 129.5938
1082.381, 88.11719
1082.863, 143.2656
1083.345, 152.7891
1083.827, 17.16406
1084.309, 135.4531
1084.791, 152.9844
1085.273, 118.2109
1085.755, 177.2578
1086.238, 440.5234
1086.720, 563.3984
1087.202, 506.4844
1087.684, 421.1719
1088.166, 469.2734
1088.648, 574.7734
1089.130, 596.3906
1089.612, 536.7812
1090.094, 457.4609
1090.577, 338.9766
1091.059, 267.0391
1091.541, 268.3281
1092.023, 324.2344
1092.505, 413.6562
1092.987, 529.4844
1093.469, 642.3906
1093.951, 748.8984
1094.434, 827.6016
1094.916, 832.2969
1095.398, 825.1797
1095.880, 852.1719
1096.362, 911.3594
1096.844, 970.7422
1097.326, 1030.719
1097.808, 1076.891
1098.291, 1098.555
1098.773, 1109.820
1099.255, 1143.883
1099.737, 1173.641
1100.219, 1151.391
1100.701, 999.4375
1101.183, 940.9766
1101.665, 1011.617
1102.147, 1082.852
1102.630, 999.5938
1103.112, 851.6250
1103.594, 845.3594
1104.076, 960.2109
1104.558, 1050.969
1105.040, 1018.312
1105.522, 999.9531
1106.004, 1030.797
1106.486, 1087.406
1106.969, 1161.703
1107.451, 1234.656
1107.933, 1184.695
1108.415, 974.3359
1108.897, 762.8047
1109.379, 621.2969
1109.861, 570.7578
1110.343, 646.4766
1110.826, 805.9453
1111.308, 797.5156
1111.790, 621.3906
1112.272, 487.9609
1112.754, 482.6484
1113.236, 512.8516
1113.718, 477.3672
1114.200, 425.2891
1114.682, 418.2578
1115.165, 486.0547
1115.647, 518.7812
1116.129, 504.1250
1116.611, 485.2500
1117.093, 512.9609
1117.575, 542.7656
1118.057, 472.8516
1118.539, 335.8203
1119.021, 239.7891
1119.504, 284.6328
1119.986, 279.9688
1120.468, 177.4922
1120.950, 63.20312
1121.432, 56.08594
1121.914, 129.6328
1122.396, 200.1641
1122.878, 261.0859
1123.361, 306.5000
1123.843, 334.8828
1124.325, 346.4609
1124.807, 334.5625
1125.289, 306.1094
1125.771, 274.0859
1126.253, 249.7500
1126.735, 334.8125
1127.218, 577.5391
1127.700, 817.8750
1128.182, 908.4688
1128.664, 952.6797
1129.146, 1049.109
1129.628, 1196.617
1130.110, 1293.391
1130.592, 1332.859
1131.074, 1359.914
1131.557, 1396.758
1132.039, 1429.078
1132.521, 1440.492
1133.003, 1437.469
1133.485, 1428.742
1133.967, 1422.688
1134.449, 1419.320
1134.931, 1438.648
1135.413, 1414.602
1135.896, 1261.734
1136.378, 1053.797
1136.860, 888.0078
1137.342, 772.9219
1137.824, 716.1484
1138.306, 771.4141
1138.788, 808.2734
1139.270, 815.0391
1139.752, 807.1328
1140.235, 774.7422
1140.717, 726.8359
1141.199, 716.7969
1141.681, 753.3281
1142.163, 778.2578
1142.645, 783.8750
1143.127, 738.5078
1143.609, 606.7344
1144.092, 439.5234
1144.574, 407.9609
1145.056, 480.6250
1145.538, 455.0469
1146.020, 256.9766
1146.502, 88.72656
1146.984, 138.9766
1147.466, 220.2891
1147.948, 188.9922
1148.431, 58.60156
1148.913, 4.398438
1149.395, 0.5312500
1149.877, 71.49219
1150.359, 236.4688
1150.841, 422.4375
1151.323, 630.3359
1151.805, 790.5547
1152.287, 794.2266
1152.770, 571.0469
1153.252, 493.8750
1153.734, 571.6719
1154.216, 682.5625
1154.698, 749.3359
1155.180, 796.6953
1155.662, 852.9219
1156.144, 912.2500
1156.627, 961.6562
1157.109, 1036.648
1157.591, 1000.516
1158.073, 816.2734
1158.555, 630.6094
1159.037, 594.5234
1159.519, 644.9219
1160.001, 711.2109
1160.484, 783.4219
1160.966, 832.8047
1161.448, 833.3516
1161.930, 860.2500
1162.412, 961.8281
1162.894, 1021.609
1163.376, 794.6797
1163.858, 415.2578
1164.340, 139.7812
1164.823, 10.05469
1165.305, 35.96094
1165.787, 90.64844
1166.269, 139.1250
1166.751, 23.86719
1167.233, 269.5781
1167.715, 233.6562
1168.197, 12.79688
1168.679, 97.10156
1169.162, 34.50000
1169.644, 140.8984
1170.126, 160.2266
1170.608, 98.19531
1171.090, 84.43750
1171.572, 341.7344
1172.054, 406.5000
1172.536, 324.9453
1173.019, 336.7578
1173.501, 642.2422
1173.983, 920.7891
1174.465, 1059.820
1174.947, 1101.125
1175.429, 1037.789
1175.911, 878.5312
1176.393, 885.8281
1176.875, 1047.406
1177.358, 1184.844
1177.840, 1183.945
1178.322, 1139.555
1178.804, 1064.664
1179.286, 996.5391
1179.768, 999.6250
1180.250, 1074.469
1180.732, 1116.336
1181.214, 1115.508
1181.697, 1116.555
1182.179, 1144.258
1182.661, 1190.734
1183.143, 1281.102
1183.625, 1377.758
1184.107, 1367.609
1184.589, 1240.523
1185.071, 1147.688
1185.554, 1116.023
1186.036, 1102.016
1186.518, 1086.289
1187.000, 1056.445
1187.482, 985.2031
1187.964, 884.2500
1188.446, 855.4766
1188.928, 916.6797
1189.411, 882.2734
1189.893, 670.1484
1190.375, 457.1172
1190.857, 466.1641
1191.339, 551.0078
1191.821, 554.6172
1192.303, 458.6094
1192.785, 375.3828
1193.267, 297.8359
1193.750, 280.4531
1194.232, 370.8672
1194.714, 484.8594
1195.196, 562.4453
1195.678, 585.8594
1196.160, 508.2891
1196.642, 269.5859
1197.124, 177.2188
1197.606, 256.1875
1198.089, 331.5312
1198.571, 279.8047
1199.053, 188.5703
1199.535, 154.4375
1200.017, 164.5703
1200.499, 199.3906
1200.981, 298.7656
1201.463, 305.8281
1201.945, 194.8594
1202.428, 106.2656
1202.910, 196.6250
1203.392, 335.2812
1203.874, 329.5625
1204.356, 233.2031
1204.838, 217.1094
1205.320, 336.8594
1205.802, 462.7031
1206.285, 601.6094
1206.767, 703.1250
1207.249, 650.0156
1207.731, 530.5625
1208.213, 455.5312
1208.695, 438.4375
1209.177, 495.8594
1209.659, 686.2344
1210.141, 789.4219
1210.624, 741.4531
1211.106, 673.4062
1211.588, 768.1406
1212.070, 909.5781
1212.552, 920.4688
1213.034, 796.6562
1213.516, 731.5312
1213.998, 758.0938
1214.480, 804.2188
1214.963, 868.6562
1215.445, 907.5781
1215.927, 836.1719
1216.409, 716.9531
1216.891, 648.0312
1217.373, 646.3906
1217.855, 588.1250
1218.337, 427.9688
1218.820, 337.0625
1219.302, 392.3594
1219.784, 491.6406
1220.266, 467.2031
1220.748, 394.6719
1221.230, 391.7031
1221.712, 497.3281
1222.194, 528.8594
1222.677, 450.1406
1223.159, 379.8125
1223.641, 358.0938
1224.123, 394.3125
1224.605, 578.7500
1225.087, 787.7188
1225.569, 851.0781
1226.051, 671.8281
1226.533, 585.2812
1227.016, 610.5625
1227.498, 644.6094
1227.980, 641.5781
1228.462, 627.1250
1228.944, 622.0156
1229.426, 629.3906
1229.908, 671.2188
1230.390, 792.6562
1230.872, 836.9531
1231.355, 790.3281
1231.837, 732.7031
1232.319, 708.4688
1232.801, 709.8125
1233.283, 726.1250
1233.765, 759.2969
1234.247, 814.7188
1234.729, 887.3906
1235.212, 989.5469
1235.694, 1126.000
1236.176, 1253.094
1236.658, 1349.172
1237.140, 1402.562
1237.622, 1382.984
1238.104, 1309.500
1238.586, 1230.953
1239.068, 1151.688
1239.551, 1070.484
1240.033, 985.3281
1240.515, 927.2344
1240.997, 932.6094
1241.479, 975.6875
1241.961, 1058.625
1242.443, 1155.312
1242.925, 1191.516
1243.407, 1159.844
1243.890, 1089.234
1244.372, 963.3281
1244.854, 895.7812
1245.336, 1047.125
1245.818, 1238.859
1246.300, 1303.469
1246.782, 1272.188
1247.264, 1287.500
1247.747, 1356.672
1248.229, 1378.531
1248.711, 1338.656
1249.193, 1239.516
1249.675, 996.7656
1250.157, 783.2500
1250.639, 775.2500
1251.121, 907.0000
1251.604, 979.9688
1252.086, 996.0000
1252.568, 1030.688
1253.050, 1101.016
1253.532, 1113.047
1254.014, 882.5938
1254.496, 669.9062
1254.978, 683.2344
1255.460, 833.4062
1255.943, 880.7188
1256.425, 829.6406
1256.907, 777.7188
1257.389, 737.2500
1257.871, 713.3125
1258.353, 709.9531
1258.835, 718.5469
1259.317, 745.9531
1259.799, 771.5312
1260.281, 737.1094
1260.764, 653.1719
1261.246, 540.4375
1261.728, 404.0156
1262.210, 285.6094
1262.692, 271.7344
1263.174, 216.8125
1263.656, 20.98438
1264.138, 223.6250
1264.621, 242.1094
1265.103, 98.67188
1265.585, 0.2031250
1266.067, 0.8750000
1266.549, 16.39062
1267.031, 112.0312
1267.513, 93.32812
1267.995, 158.6406
1268.478, 515.5625
1268.960, 668.5312
1269.442, 700.4219
1269.924, 813.3750
1270.406, 1085.297
1270.888, 1261.875
1271.370, 1255.422
1271.852, 1258.391
1272.334, 1363.641
1272.817, 1504.188
1273.299, 1568.109
1273.781, 1579.109
1274.263, 1582.969
1274.745, 1595.312
1275.227, 1578.250
1275.709, 1526.406
1276.191, 1490.484
1276.673, 1523.250
1277.156, 1545.844
1277.638, 1429.578
1278.120, 1246.203
1278.602, 1081.594
1279.084, 939.1250
1279.566, 908.7188
1280.048, 1004.672
1280.530, 1108.406
1281.013, 1180.516
1281.495, 1207.062
1281.977, 1133.109
1282.459, 1018.156
1282.941, 853.8594
1283.423, 826.0312
1283.905, 786.7188
1284.387, 676.7969
1284.870, 642.1406
1285.352, 581.7812
1285.834, 575.2188
1286.316, 792.7344
1286.798, 1000.859
1287.280, 956.1250
1287.762, 684.9688
1288.244, 631.2188
1288.726, 756.8281
1289.208, 835.9531
1289.691, 741.0312
1290.173, 635.1250
1290.655, 551.9688
1291.137, 525.2969
1291.619, 621.4531
1292.101, 783.5000
1292.583, 753.5625
1293.065, 602.3281
1293.548, 455.5156
1294.030, 337.7344
1294.512, 236.5000
1294.994, 134.2031
1295.476, 68.75000
1295.958, 78.87500
1296.440, 101.4219
1296.922, 63.87500
1297.405, 212.0000
1297.887, 440.5781
1298.369, 128.5625
1298.851, 8.078125
1299.333, 72.26562
1299.815, 192.5000
1300.297, 116.2500
1300.779, 0.0000000E+00
##END=



