##NAMES=Stokesite
##RRUFFID=R060587
##IDEAL CHEMISTRY=CaSnSi_3_O_9_&#183;2H_2_O
##LOCALITY=Urucum mine, Galileia, Minas Gerais, Brazil
##OWNER=RRUFF
##SOURCE=Michael Scott
##DESCRIPTION=Spherical aggregate of colorless prismatic crystals
##STATUS=The identification of this mineral has been confirmed by single-crystal X-ray diffraction.
##URL=rruff.info/R060587
141.289, 0.000
141.771, 44.980
142.253, 72.444
142.735, 78.615
143.217, 61.705
143.699, 40.614
144.182, 45.995
144.664, 85.942
145.146, 65.777
145.628, 43.551
146.110, 21.990
146.592, 4.780
147.074, 2.803
147.556, 19.855
148.038, 43.576
148.521, 5.194
149.003, 32.308
149.485, 66.745
149.967, 102.902
150.449, 142.365
150.931, 192.573
151.413, 237.263
151.895, 267.608
152.378, 289.461
152.860, 327.238
153.342, 399.550
153.824, 476.908
154.306, 542.316
154.788, 578.450
155.270, 619.407
155.752, 674.388
156.234, 742.537
156.717, 808.749
157.199, 861.005
157.681, 913.899
158.163, 978.256
158.645, 1072.603
159.127, 1164.438
159.609, 1241.355
160.091, 1301.509
160.574, 1360.534
161.056, 1425.881
161.538, 1491.900
162.020, 1551.583
162.502, 1592.325
162.984, 1632.660
163.466, 1687.106
163.948, 1763.127
164.430, 1825.090
164.913, 1846.605
165.395, 1841.619
165.877, 1837.108
166.359, 1840.726
166.841, 1852.004
167.323, 1873.434
167.805, 1911.476
168.287, 1945.784
168.770, 1955.774
169.252, 1951.309
169.734, 1952.395
170.216, 1995.567
170.698, 2043.233
171.180, 2051.926
171.662, 1993.532
172.144, 1921.370
172.626, 1885.002
173.109, 1878.308
173.591, 1868.554
174.073, 1827.025
174.555, 1769.560
175.037, 1719.464
175.519, 1684.433
176.001, 1658.750
176.483, 1637.175
176.965, 1619.428
177.448, 1604.431
177.930, 1603.081
178.412, 1604.178
178.894, 1582.045
179.376, 1507.980
179.858, 1413.101
180.340, 1351.027
180.822, 1323.581
181.305, 1306.913
181.787, 1282.185
182.269, 1249.797
182.751, 1211.417
183.233, 1168.677
183.715, 1120.405
184.197, 1060.651
184.679, 986.102
185.161, 914.041
185.644, 872.532
186.126, 857.377
186.608, 832.785
187.090, 774.462
187.572, 691.398
188.054, 615.053
188.536, 546.803
189.018, 487.404
189.501, 440.665
189.983, 406.934
190.465, 379.601
190.947, 363.487
191.429, 355.081
191.911, 324.849
192.393, 264.359
192.875, 191.218
193.357, 137.279
193.840, 103.397
194.322, 81.612
194.804, 73.547
195.286, 78.575
195.768, 65.358
196.250, 20.855
196.732, 35.556
197.214, 48.622
197.697, 11.794
198.179, 36.313
198.661, 68.376
199.143, 72.008
199.625, 75.296
200.107, 78.641
200.589, 84.428
201.071, 101.589
201.553, 130.631
202.036, 170.227
202.518, 223.429
203.000, 293.007
203.482, 355.455
203.964, 401.087
204.446, 434.262
204.928, 489.039
205.410, 569.045
205.893, 658.733
206.375, 743.031
206.857, 815.763
207.339, 901.177
207.821, 1007.615
208.303, 1133.639
208.785, 1252.950
209.267, 1359.550
209.749, 1470.071
210.232, 1605.489
210.714, 1773.819
211.196, 1940.643
211.678, 2085.987
212.160, 2208.082
212.642, 2398.797
213.124, 2686.039
213.606, 3008.488
214.089, 3282.565
214.571, 3491.832
215.053, 3703.259
215.535, 3933.336
216.017, 4182.373
216.499, 4457.776
216.981, 4763.486
217.463, 5093.530
217.945, 5440.624
218.428, 5792.641
218.910, 6173.322
219.392, 6585.455
219.874, 7031.543
220.356, 7505.937
220.838, 8006.427
221.320, 8533.187
221.802, 9074.550
222.285, 9616.152
222.767, 10197.896
223.249, 10832.457
223.731, 11540.208
224.213, 12241.939
224.695, 12921.450
225.177, 13608.295
225.659, 14377.209
226.141, 15243.969
226.624, 16159.885
227.106, 17115.877
227.588, 18128.441
228.070, 19137.664
228.552, 20204.738
229.034, 21239.781
229.516, 22017.293
229.998, 22482.459
230.480, 22774.500
230.963, 22949.682
231.445, 23029.248
231.927, 22943.959
232.409, 22679.111
232.891, 22251.652
233.373, 21687.574
233.855, 20945.312
234.337, 20131.738
234.820, 19279.740
235.302, 18346.311
235.784, 17444.236
236.266, 16566.859
236.748, 15726.388
237.230, 14954.028
237.712, 14257.204
238.194, 13603.221
238.676, 12981.157
239.159, 12376.325
239.641, 11830.020
240.123, 11347.063
240.605, 10921.092
241.087, 10536.869
241.569, 10192.141
242.051, 9885.329
242.533, 9620.319
243.016, 9405.532
243.498, 9216.185
243.980, 9064.243
244.462, 8933.138
244.944, 8770.107
245.426, 8553.568
245.908, 8336.084
246.390, 8147.524
246.872, 8001.423
247.355, 7846.605
247.837, 7680.884
248.319, 7506.308
248.801, 7330.957
249.283, 7149.088
249.765, 6974.373
250.247, 6810.826
250.729, 6652.407
251.212, 6525.542
251.694, 6447.396
252.176, 6401.509
252.658, 6327.763
253.140, 6206.140
253.622, 6087.894
254.104, 6001.018
254.586, 5966.200
255.068, 5914.535
255.551, 5842.738
256.033, 5753.587
256.515, 5655.559
256.997, 5541.774
257.479, 5430.438
257.961, 5330.230
258.443, 5242.513
258.925, 5160.689
259.408, 5079.208
259.890, 5002.841
260.372, 4948.156
260.854, 4925.938
261.336, 4905.334
261.818, 4865.670
262.300, 4795.094
262.782, 4743.337
263.264, 4719.790
263.746, 4714.176
264.229, 4696.480
264.711, 4665.215
265.193, 4624.128
265.675, 4575.723
266.157, 4522.774
266.639, 4454.133
267.121, 4372.531
267.603, 4273.924
268.086, 4139.439
268.568, 3959.850
269.050, 3771.603
269.532, 3595.590
270.014, 3434.923
270.496, 3276.133
270.978, 3126.213
271.460, 2976.469
271.943, 2798.407
272.425, 2583.101
272.907, 2372.285
273.389, 2187.119
273.871, 2031.971
274.353, 1878.936
274.835, 1726.418
275.317, 1578.443
275.799, 1444.177
276.282, 1326.371
276.764, 1213.719
277.246, 1097.900
277.728, 978.217
278.210, 871.442
278.692, 780.667
279.174, 702.935
279.656, 637.240
280.138, 585.446
280.621, 532.116
281.103, 461.976
281.585, 375.199
282.067, 317.149
282.549, 295.156
283.031, 291.684
283.513, 278.759
283.995, 256.191
284.478, 227.397
284.960, 190.576
285.442, 146.935
285.924, 109.410
286.406, 78.386
286.888, 53.114
287.370, 36.397
287.852, 28.059
288.335, 12.082
288.817, 28.754
289.299, 86.267
289.781, 119.059
290.263, 123.162
290.745, 114.296
291.227, 111.119
291.709, 112.761
292.191, 111.768
292.674, 97.729
293.156, 78.193
293.638, 79.505
294.120, 103.476
294.602, 69.313
295.084, 37.605
295.566, 10.660
296.048, 12.327
296.530, 33.573
297.013, 50.910
297.495, 57.450
297.977, 52.743
298.459, 45.057
298.941, 38.702
299.423, 35.092
299.905, 38.952
300.387, 61.779
300.870, 88.000
301.352, 91.624
301.834, 72.875
302.316, 51.979
302.798, 48.630
303.280, 55.221
303.762, 57.453
304.244, 48.061
304.727, 34.046
305.209, 22.555
305.691, 13.548
306.173, 5.481
306.655, 4.559
307.137, 13.697
307.619, 17.495
308.101, 10.291
308.583, 2.089
309.065, 1.150
309.548, 6.683
310.030, 14.625
310.512, 24.492
310.994, 34.843
311.476, 23.642
311.958, 12.361
312.440, 2.179
312.922, 6.609
313.405, 14.330
313.887, 22.076
314.369, 30.937
314.851, 39.713
315.333, 46.762
315.815, 48.741
316.297, 54.908
316.779, 70.645
317.262, 93.524
317.744, 118.233
318.226, 147.234
318.708, 174.196
319.190, 195.064
319.672, 206.579
320.154, 219.005
320.636, 232.084
321.118, 248.378
321.601, 272.303
322.083, 305.208
322.565, 345.877
323.047, 370.555
323.529, 377.669
324.011, 417.928
324.493, 450.143
324.975, 474.852
325.457, 469.780
325.940, 504.435
326.422, 523.452
326.904, 541.604
327.386, 582.005
327.868, 583.219
328.350, 623.621
328.832, 648.010
329.314, 680.158
329.797, 695.769
330.279, 715.326
330.761, 750.251
331.243, 776.123
331.725, 788.035
332.207, 817.819
332.689, 822.390
333.171, 831.551
333.654, 784.662
334.136, 743.351
334.618, 714.745
335.100, 698.188
335.582, 691.414
336.064, 704.646
336.546, 710.586
337.028, 685.446
337.510, 615.431
337.992, 565.443
338.475, 540.064
338.957, 512.472
339.439, 518.549
339.921, 516.359
340.403, 506.341
340.885, 465.283
341.367, 464.131
341.849, 446.878
342.332, 428.891
342.814, 433.138
343.296, 396.200
343.778, 397.751
344.260, 407.225
344.742, 403.938
345.224, 349.915
345.706, 361.232
346.189, 346.254
346.671, 328.551
347.153, 343.636
347.635, 289.257
348.117, 301.046
348.599, 286.694
349.081, 266.229
349.563, 258.323
350.045, 251.709
350.528, 244.023
351.010, 222.140
351.492, 195.034
351.974, 188.006
352.456, 225.642
352.938, 277.100
353.420, 305.251
353.902, 311.057
354.384, 303.664
354.867, 273.560
355.349, 240.568
355.831, 233.397
356.313, 272.009
356.795, 317.262
357.277, 335.562
357.759, 334.511
358.241, 337.000
358.724, 365.107
359.206, 397.579
359.688, 412.744
360.170, 407.184
360.652, 440.032
361.134, 463.187
361.616, 477.427
362.098, 457.207
362.581, 483.140
363.063, 491.404
363.545, 499.086
364.027, 532.064
364.509, 518.471
364.991, 548.508
365.473, 606.087
365.955, 645.565
366.437, 654.631
366.919, 651.246
367.402, 634.039
367.884, 602.199
368.366, 579.186
368.848, 572.322
369.330, 572.123
369.812, 572.193
370.294, 585.575
370.776, 579.431
371.259, 539.536
371.741, 474.796
372.223, 434.957
372.705, 436.215
373.187, 440.183
373.669, 423.182
374.151, 370.034
374.633, 339.420
375.116, 294.513
375.598, 302.851
376.080, 298.607
376.562, 282.366
377.044, 217.619
377.526, 215.581
378.008, 188.410
378.490, 160.209
378.973, 153.177
379.455, 130.057
379.937, 98.709
380.419, 59.523
380.901, 28.485
381.383, 14.028
381.865, 11.330
382.347, 4.678
382.829, 6.070
383.311, 16.316
383.794, 18.361
384.276, 15.997
384.758, 23.594
385.240, 39.742
385.722, 10.637
386.204, 11.309
386.686, 37.404
387.168, 29.614
387.651, 16.081
388.133, 10.649
388.615, 7.095
389.097, 4.953
389.579, 3.161
390.061, 2.500
390.543, 1.658
391.025, 2.238
391.508, 10.511
391.990, 22.215
392.472, 38.820
392.954, 61.267
393.436, 79.823
393.918, 84.310
394.400, 85.168
394.882, 93.565
395.364, 127.382
395.847, 154.152
396.329, 157.249
396.811, 139.709
397.293, 136.767
397.775, 166.939
398.257, 205.097
398.739, 236.547
399.221, 259.448
399.703, 276.499
400.186, 274.144
400.668, 266.140
401.150, 288.420
401.632, 323.604
402.114, 375.118
402.596, 422.629
403.078, 466.148
403.560, 494.713
404.043, 542.535
404.525, 582.532
405.007, 622.295
405.489, 672.677
405.971, 705.843
406.453, 760.919
406.935, 810.676
407.417, 865.064
407.900, 909.955
408.382, 947.406
408.864, 996.772
409.346, 1056.769
409.828, 1094.115
410.310, 1133.359
410.792, 1196.924
411.274, 1254.860
411.756, 1308.378
412.238, 1340.567
412.721, 1389.234
413.203, 1451.478
413.685, 1504.293
414.167, 1547.700
414.649, 1569.132
415.131, 1608.875
415.613, 1635.357
416.095, 1657.135
416.578, 1687.120
417.060, 1689.519
417.542, 1710.706
418.024, 1718.451
418.506, 1726.171
418.988, 1720.589
419.470, 1713.711
419.952, 1711.925
420.435, 1699.839
420.917, 1674.718
421.399, 1655.564
421.881, 1613.222
422.363, 1581.535
422.845, 1550.162
423.327, 1493.786
423.809, 1442.067
424.291, 1415.015
424.774, 1385.854
425.256, 1356.554
425.738, 1323.365
426.220, 1279.824
426.702, 1212.017
427.184, 1155.644
427.666, 1123.474
428.148, 1115.022
428.630, 1086.816
429.113, 1030.374
429.595, 968.563
430.077, 919.410
430.559, 884.822
431.041, 854.297
431.523, 827.262
432.005, 802.531
432.487, 777.412
432.970, 751.910
433.452, 725.625
433.934, 697.408
434.416, 668.141
434.898, 641.352
435.380, 617.335
435.862, 593.556
436.344, 566.744
436.827, 537.707
437.309, 508.369
437.791, 471.898
438.273, 441.258
438.755, 437.979
439.237, 458.512
439.719, 477.342
440.201, 476.961
440.683, 465.805
441.165, 451.839
441.648, 434.085
442.130, 421.274
442.612, 421.879
443.094, 428.844
443.576, 431.636
444.058, 421.859
444.540, 408.955
445.022, 396.723
445.505, 384.680
445.987, 378.844
446.469, 381.539
446.951, 389.765
447.433, 402.078
447.915, 409.216
448.397, 420.670
448.879, 431.331
449.362, 441.219
449.844, 447.353
450.326, 458.595
450.808, 467.819
451.290, 476.959
451.772, 488.911
452.254, 495.682
452.736, 507.591
453.218, 517.453
453.701, 528.257
454.183, 536.608
454.665, 556.760
455.147, 548.407
455.629, 522.419
456.111, 518.662
456.593, 537.626
457.075, 550.216
457.557, 528.434
458.040, 482.154
458.522, 433.817
459.004, 386.886
459.486, 339.806
459.968, 289.501
460.450, 237.296
460.932, 187.935
461.414, 145.156
461.897, 104.638
462.379, 61.804
462.861, 15.794
463.343, 27.024
463.825, 63.270
464.307, 95.711
464.789, 86.066
465.271, 54.194
465.754, 27.237
466.236, 5.763
466.718, 9.873
467.200, 18.431
467.682, 10.422
468.164, 4.087
468.646, 7.363
469.128, 25.738
469.610, 36.388
470.093, 37.673
470.575, 32.789
471.057, 24.143
471.539, 9.588
472.021, 0.037
472.503, 0.161
472.985, 6.874
473.467, 4.388
473.949, 7.931
474.432, 23.940
474.914, 39.402
475.396, 54.824
475.878, 73.240
476.360, 95.659
476.842, 118.885
477.324, 139.737
477.806, 133.413
478.289, 121.493
478.771, 119.746
479.253, 116.747
479.735, 95.280
480.217, 57.295
480.699, 25.909
481.181, 23.062
481.663, 28.940
482.146, 25.852
482.628, 8.289
483.110, 15.388
483.592, 44.397
484.074, 77.457
484.556, 111.541
485.038, 154.085
485.520, 189.823
486.002, 211.687
486.484, 217.844
486.967, 227.755
487.449, 242.699
487.931, 260.035
488.413, 276.294
488.895, 287.412
489.377, 310.792
489.859, 351.437
490.341, 401.992
490.824, 444.423
491.306, 477.598
491.788, 509.400
492.270, 542.693
492.752, 577.517
493.234, 611.388
493.716, 643.125
494.198, 680.175
494.681, 732.119
495.163, 794.759
495.645, 856.391
496.127, 915.841
496.609, 971.385
497.091, 1015.891
497.573, 1054.070
498.055, 1100.609
498.537, 1169.647
499.020, 1244.139
499.502, 1311.432
499.984, 1368.214
500.466, 1431.985
500.948, 1523.725
501.430, 1617.072
501.912, 1690.382
502.394, 1712.415
502.876, 1745.552
503.359, 1805.390
503.841, 1883.013
504.323, 1949.148
504.805, 2000.980
505.287, 2046.414
505.769, 2088.466
506.251, 2126.999
506.733, 2161.949
507.216, 2193.167
507.698, 2221.458
508.180, 2243.724
508.662, 2259.849
509.144, 2289.677
509.626, 2340.052
510.108, 2402.954
510.590, 2463.243
511.073, 2521.068
511.555, 2577.170
512.037, 2617.036
512.519, 2661.462
513.001, 2744.077
513.483, 2868.324
513.965, 3009.621
514.447, 3161.121
514.929, 3315.696
515.412, 3464.645
515.894, 3602.962
516.376, 3738.390
516.858, 3872.235
517.340, 4004.646
517.822, 4134.519
518.304, 4270.013
518.786, 4395.138
519.268, 4501.889
519.751, 4586.025
520.233, 4667.964
520.715, 4746.716
521.197, 4821.491
521.679, 4898.376
522.161, 4985.961
522.643, 5047.187
523.125, 5067.001
523.607, 5119.859
524.090, 5164.747
524.572, 5201.986
525.054, 5208.584
525.536, 5254.654
526.018, 5285.171
526.500, 5315.043
526.982, 5365.732
527.464, 5375.584
527.947, 5425.180
528.429, 5459.204
528.911, 5501.053
529.393, 5528.078
529.875, 5560.203
530.357, 5608.114
530.839, 5647.258
531.321, 5672.782
531.804, 5716.502
532.286, 5728.118
532.768, 5768.030
533.250, 5820.117
533.732, 5846.719
534.214, 5890.787
534.696, 5911.713
535.178, 5970.240
535.661, 6033.060
536.143, 6110.344
536.625, 6207.362
537.107, 6314.259
537.589, 6416.456
538.071, 6514.368
538.553, 6607.327
539.035, 6685.743
539.517, 6757.977
540.000, 6867.493
540.482, 7015.529
540.964, 7188.285
541.446, 7392.951
541.928, 7613.445
542.410, 7799.549
542.892, 7936.763
543.374, 8074.257
543.856, 8261.113
544.339, 8479.943
544.821, 8704.895
545.303, 8926.094
545.785, 9148.875
546.267, 9374.581
546.749, 9603.903
547.231, 9845.747
547.713, 10106.174
548.195, 10376.586
548.678, 10656.936
549.160, 10952.686
549.642, 11241.910
550.124, 11508.939
550.606, 11784.082
551.088, 12108.135
551.570, 12502.549
552.052, 12871.033
552.534, 13186.979
553.017, 13471.547
553.499, 13785.147
553.981, 14127.209
554.463, 14463.053
554.945, 14783.076
555.427, 15084.133
555.909, 15346.689
556.391, 15571.604
556.874, 15781.907
557.356, 16003.694
557.838, 16220.871
558.320, 16408.393
558.802, 16546.467
559.284, 16680.537
559.766, 16901.795
560.248, 17127.242
560.731, 17207.246
561.213, 17005.201
561.695, 16741.662
562.177, 16482.553
562.659, 16228.114
563.141, 15934.212
563.623, 15574.112
564.105, 15199.556
564.588, 14843.895
565.070, 14524.409
565.552, 14149.497
566.034, 13713.710
566.516, 13238.642
566.998, 12745.467
567.480, 12236.798
567.962, 11728.236
568.444, 11220.269
568.927, 10719.055
569.409, 10252.907
569.891, 9813.567
570.373, 9380.398
570.855, 8921.040
571.337, 8470.388
571.819, 8052.229
572.301, 7672.412
572.783, 7308.845
573.266, 6956.588
573.748, 6615.311
574.230, 6290.187
574.712, 5979.236
575.194, 5681.356
575.676, 5400.878
576.158, 5133.274
576.640, 4876.513
577.122, 4644.567
577.605, 4409.798
578.087, 4160.865
578.569, 3904.135
579.051, 3679.677
579.533, 3495.460
580.015, 3324.146
580.497, 3149.497
580.979, 2971.888
581.461, 2802.720
581.944, 2642.404
582.426, 2492.066
582.908, 2356.509
583.390, 2230.627
583.872, 2098.110
584.354, 1943.996
584.836, 1796.906
585.318, 1679.530
585.801, 1585.637
586.283, 1498.432
586.765, 1416.123
587.247, 1336.233
587.729, 1254.844
588.211, 1171.165
588.693, 1098.464
589.175, 1042.292
589.657, 992.008
590.140, 943.441
590.622, 901.032
591.104, 843.373
591.586, 762.576
592.068, 678.482
592.550, 620.389
593.032, 587.833
593.515, 561.752
593.997, 540.143
594.479, 517.874
594.961, 484.070
595.443, 440.751
595.925, 397.792
596.407, 356.442
596.889, 321.091
597.371, 296.293
597.854, 282.281
598.336, 273.030
598.818, 282.700
599.300, 285.731
599.782, 260.385
600.264, 169.820
600.746, 107.787
601.228, 96.566
601.710, 108.405
602.193, 105.390
602.675, 81.412
603.157, 56.511
603.639, 32.934
604.121, 12.012
604.603, 0.424
605.085, 1.171
605.567, 1.617
606.049, 2.551
606.532, 6.484
607.014, 23.745
607.496, 54.622
607.978, 81.492
608.460, 81.822
608.942, 73.193
609.424, 79.756
609.906, 74.078
610.388, 43.174
610.871, 56.434
611.353, 86.876
611.835, 76.939
612.317, 52.970
612.799, 18.709
613.281, 6.898
613.763, 12.777
614.245, 17.411
614.728, 22.181
615.210, 22.319
615.692, 11.980
616.174, 7.143
616.656, 10.045
617.138, 4.894
617.620, 23.791
618.102, 29.274
618.584, 29.791
619.067, 10.460
619.549, 30.721
620.031, 41.378
620.513, 42.954
620.995, 8.209
621.477, 20.381
621.959, 13.742
622.442, 6.326
622.924, 14.725
623.406, 11.539
623.888, 6.063
624.370, 10.312
624.852, 22.547
625.334, 24.422
625.816, 15.967
626.298, 15.453
626.781, 26.363
627.263, 35.171
627.745, 29.808
628.227, 12.039
628.709, 2.467
629.191, 13.114
629.673, 18.628
630.155, 14.134
630.638, 3.865
631.120, 3.538
631.602, 4.602
632.084, 3.121
632.566, 8.021
633.048, 12.101
633.530, 1.074
634.012, 44.301
634.494, 96.574
634.977, 116.899
635.459, 106.834
635.941, 104.579
636.423, 111.732
636.905, 124.506
637.387, 140.492
637.869, 159.221
638.351, 190.620
638.833, 238.527
639.316, 281.647
639.798, 289.369
640.280, 272.950
640.762, 274.054
641.244, 301.812
641.726, 342.742
642.208, 389.773
642.690, 439.579
643.172, 487.115
643.655, 529.515
644.137, 570.269
644.619, 615.265
645.101, 661.006
645.583, 695.189
646.065, 692.630
646.547, 703.677
647.029, 747.018
647.511, 823.025
647.994, 884.846
648.476, 924.840
648.958, 971.503
649.440, 1051.748
649.922, 1161.116
650.404, 1246.983
650.886, 1303.790
651.369, 1354.797
651.851, 1423.953
652.333, 1503.854
652.815, 1580.177
653.297, 1646.028
653.779, 1713.911
654.261, 1790.564
654.743, 1874.985
655.225, 1964.243
655.708, 2066.146
656.190, 2163.211
656.672, 2249.273
657.154, 2326.803
657.636, 2411.526
658.118, 2510.327
658.600, 2602.034
659.082, 2678.872
659.565, 2741.514
660.047, 2792.058
660.529, 2830.976
661.011, 2853.194
661.493, 2849.080
661.975, 2826.670
662.457, 2806.970
662.939, 2794.881
663.421, 2765.303
663.904, 2692.518
664.386, 2594.205
664.868, 2490.948
665.350, 2385.957
665.832, 2275.995
666.314, 2154.893
666.796, 2032.255
667.278, 1923.377
667.760, 1838.576
668.243, 1749.367
668.725, 1650.305
669.207, 1542.211
669.689, 1429.439
670.171, 1309.929
670.653, 1206.563
671.135, 1137.950
671.617, 1091.845
672.099, 1041.243
672.582, 985.824
673.064, 924.040
673.546, 850.045
674.028, 773.043
674.510, 700.774
674.992, 633.901
675.474, 575.701
675.956, 527.504
676.439, 488.114
676.921, 457.350
677.403, 442.038
677.885, 420.808
678.367, 391.141
678.849, 358.374
679.331, 329.988
679.813, 305.802
680.295, 284.357
680.778, 264.666
681.260, 247.691
681.742, 239.577
682.224, 236.573
682.706, 225.480
683.188, 194.131
683.670, 157.667
684.153, 121.681
684.635, 88.001
685.117, 66.850
685.599, 72.474
686.081, 83.643
686.563, 91.453
687.045, 96.241
687.527, 95.010
688.009, 87.703
688.492, 73.786
688.974, 48.448
689.456, 11.185
689.938, 4.187
690.420, 2.224
690.902, 7.023
691.384, 6.116
691.866, 4.433
692.348, 4.456
692.831, 28.863
693.313, 58.248
693.795, 58.772
694.277, 43.381
694.759, 30.127
695.241, 24.406
695.723, 20.873
696.205, 20.246
696.688, 21.449
697.170, 21.155
697.652, 19.212
698.134, 17.341
698.616, 14.953
699.098, 14.240
699.580, 29.901
700.062, 61.257
700.544, 82.075
701.027, 66.957
701.509, 35.687
701.991, 16.305
702.473, 9.023
702.955, 7.858
703.437, 10.693
703.919, 16.937
704.401, 26.982
704.883, 42.697
705.366, 54.849
705.848, 58.814
706.330, 64.362
706.812, 80.678
707.294, 111.589
707.776, 137.418
708.258, 155.559
708.740, 170.684
709.222, 192.523
709.705, 218.574
710.187, 233.916
710.669, 230.658
711.151, 220.781
711.633, 201.413
712.115, 189.030
712.597, 191.066
713.080, 189.592
713.562, 184.753
714.044, 166.602
714.526, 165.574
715.008, 157.757
715.490, 149.695
715.972, 151.125
716.454, 134.880
716.936, 136.065
717.419, 130.361
717.901, 127.849
718.383, 118.320
718.865, 110.821
719.347, 110.213
719.829, 98.116
720.311, 78.450
720.793, 68.828
721.276, 78.269
721.758, 88.779
722.240, 82.680
722.722, 50.181
723.204, 32.303
723.686, 43.565
724.168, 64.692
724.650, 85.182
725.132, 108.914
725.615, 113.118
726.097, 89.545
726.579, 63.961
727.061, 80.146
727.543, 125.298
728.025, 138.934
728.507, 95.290
728.989, 47.900
729.471, 35.159
729.954, 20.230
730.436, 40.297
730.918, 51.888
731.400, 55.541
731.882, 27.144
732.364, 40.218
732.846, 36.624
733.328, 32.332
733.810, 51.199
734.293, 27.461
734.775, 46.077
735.257, 47.973
735.739, 57.596
736.221, 46.909
736.703, 48.253
737.185, 63.913
737.667, 63.552
738.149, 49.832
738.632, 37.606
739.114, 37.906
739.596, 39.609
740.078, 36.118
740.560, 26.622
741.042, 16.443
741.524, 2.187
742.006, 7.335
742.489, 5.106
742.971, 9.959
743.453, 13.932
743.935, 5.026
744.417, 4.844
744.899, 5.611
745.381, 1.237
745.863, 14.776
746.346, 36.371
746.828, 52.935
747.310, 51.515
747.792, 39.262
748.274, 27.144
748.756, 16.060
749.238, 7.422
749.720, 0.402
750.203, 4.046
750.685, 12.483
751.167, 0.496
751.649, 8.125
752.131, 10.693
752.613, 6.627
753.095, 1.435
753.577, 0.705
754.059, 3.221
754.542, 8.492
755.024, 6.039
755.506, 5.332
755.988, 6.272
756.470, 4.756
756.952, 24.543
757.434, 32.741
757.916, 31.150
758.398, 21.874
758.881, 9.095
759.363, 9.922
759.845, 3.005
760.327, 1.974
760.809, 0.053
761.291, 1.967
761.773, 4.236
762.255, 9.909
762.737, 2.158
763.220, 20.722
763.702, 19.164
764.184, 0.013
764.666, 6.069
765.148, 3.007
765.630, 4.894
766.112, 5.165
766.594, 5.859
767.076, 12.628
767.559, 10.555
768.041, 8.366
768.523, 5.086
769.005, 24.233
769.487, 46.112
769.969, 49.659
770.451, 48.652
770.933, 55.642
771.416, 62.637
771.898, 56.667
772.380, 34.555
772.862, 20.018
773.344, 32.650
773.826, 49.845
774.308, 54.761
774.790, 38.041
775.273, 38.802
775.755, 63.415
776.237, 88.960
776.719, 93.449
777.201, 79.844
777.683, 62.378
778.165, 40.545
778.647, 23.558
779.130, 21.512
779.612, 28.699
780.094, 39.743
780.576, 55.865
781.058, 69.123
781.540, 76.848
782.022, 81.905
782.504, 87.802
782.986, 97.006
783.469, 98.556
783.951, 91.752
784.433, 80.990
784.915, 68.090
785.397, 54.953
785.879, 52.267
786.361, 65.723
786.843, 83.286
787.325, 94.700
787.808, 99.468
788.290, 96.978
788.772, 75.258
789.254, 59.974
789.736, 61.945
790.218, 72.540
790.700, 76.362
791.182, 72.483
791.664, 64.141
792.147, 47.595
792.629, 30.771
793.111, 31.352
793.593, 46.299
794.075, 61.781
794.557, 74.880
795.039, 84.445
795.521, 86.716
796.003, 84.897
796.486, 86.005
796.968, 99.487
797.450, 107.747
797.932, 108.193
798.414, 100.552
798.896, 79.464
799.378, 38.833
799.860, 14.544
800.343, 23.428
800.825, 52.595
801.307, 78.129
801.789, 97.750
802.271, 102.671
802.753, 78.062
803.235, 48.997
803.717, 27.427
804.200, 13.839
804.682, 9.041
805.164, 24.592
805.646, 35.701
806.128, 35.124
806.610, 25.922
807.092, 20.152
807.574, 17.626
808.057, 20.046
808.539, 29.518
809.021, 44.318
809.503, 62.144
809.985, 80.364
810.467, 88.618
810.949, 72.517
811.431, 54.912
811.913, 48.931
812.396, 54.046
812.878, 57.545
813.360, 61.800
813.842, 60.624
814.324, 47.441
814.806, 27.663
815.288, 32.409
815.770, 60.930
816.252, 84.949
816.735, 84.842
817.217, 72.101
817.699, 60.576
818.181, 50.400
818.663, 41.252
819.145, 34.797
819.627, 27.359
820.109, 15.070
820.591, 0.090
821.074, 3.786
821.556, 3.725
822.038, 1.582
822.520, 20.452
823.002, 48.008
823.484, 33.959
823.966, 0.777
824.448, 35.227
824.930, 14.447
825.413, 1.083
825.895, 12.594
826.377, 4.570
826.859, 3.657
827.341, 0.749
827.823, 2.422
828.305, 1.342
828.787, 51.443
829.270, 66.354
829.752, 43.403
830.234, 11.728
830.716, 8.294
831.198, 15.199
831.680, 30.160
832.162, 36.457
832.644, 33.301
833.127, 4.435
833.609, 9.108
834.091, 10.493
834.573, 6.699
835.055, 22.335
835.537, 28.415
836.019, 22.935
836.501, 0.827
836.984, 2.753
837.466, 19.486
837.948, 18.913
838.430, 8.394
838.912, 13.470
839.394, 13.580
839.876, 9.344
840.358, 16.619
840.841, 5.456
841.323, 1.557
841.805, 3.103
842.287, 1.992
842.769, 14.161
843.251, 13.692
843.733, 1.189
844.215, 17.176
844.697, 12.906
845.180, 4.454
845.662, 5.936
846.144, 16.429
846.626, 14.727
847.108, 17.323
847.590, 40.957
848.072, 35.813
848.554, 7.108
849.036, 10.561
849.519, 13.109
850.001, 11.660
850.483, 10.477
850.965, 7.127
851.447, 12.345
851.929, 44.636
852.411, 64.302
852.893, 48.701
853.375, 23.251
853.858, 6.992
854.340, 0.069
854.822, 3.198
855.304, 33.558
855.786, 53.510
856.268, 52.750
856.750, 36.626
857.232, 19.249
857.714, 0.102
858.197, 15.798
858.679, 27.714
859.161, 32.937
859.643, 21.067
860.125, 1.305
860.607, 18.003
861.089, 19.528
861.571, 16.350
862.054, 6.003
862.536, 5.311
863.018, 1.413
863.500, 27.260
863.982, 41.885
864.464, 30.664
864.946, 9.924
865.428, 9.432
865.911, 25.984
866.393, 40.892
866.875, 22.729
867.357, 6.355
867.839, 31.285
868.321, 46.264
868.803, 51.720
869.285, 19.288
869.768, 35.688
870.250, 32.545
870.732, 28.626
871.214, 51.985
871.696, 25.128
872.178, 48.006
872.660, 50.910
873.142, 62.956
873.624, 55.439
874.107, 53.594
874.589, 60.713
875.071, 98.895
875.553, 129.305
876.035, 139.829
876.517, 140.809
876.999, 138.475
877.481, 131.091
877.963, 129.927
878.446, 134.735
878.928, 145.894
879.410, 144.028
879.892, 175.110
880.374, 199.214
880.856, 216.008
881.338, 203.057
881.820, 226.994
882.302, 233.694
882.785, 241.067
883.267, 271.477
883.749, 262.810
884.231, 293.150
884.713, 304.493
885.195, 332.794
885.677, 390.820
886.159, 444.521
886.641, 492.066
887.124, 534.484
887.606, 566.700
888.088, 598.801
888.570, 635.775
889.052, 679.307
889.534, 730.948
890.016, 797.651
890.498, 860.152
890.981, 908.989
891.463, 947.085
891.945, 985.472
892.427, 1025.901
892.909, 1086.175
893.391, 1201.533
893.873, 1322.104
894.355, 1397.609
894.838, 1439.785
895.320, 1504.786
895.802, 1635.712
896.284, 1746.218
896.766, 1811.604
897.248, 1844.719
897.730, 1890.726
898.212, 1947.790
898.695, 1980.281
899.177, 1963.590
899.659, 1929.455
900.141, 1915.532
900.623, 1910.982
901.105, 1895.457
901.587, 1866.825
902.069, 1819.043
902.551, 1742.717
903.034, 1656.796
903.516, 1593.786
903.998, 1555.774
904.480, 1500.119
904.962, 1414.641
905.444, 1332.210
905.926, 1305.365
906.408, 1302.842
906.890, 1270.409
907.373, 1177.134
907.855, 1104.235
908.337, 1101.470
908.819, 1111.201
909.301, 1086.146
909.783, 1013.428
910.265, 976.661
910.747, 982.146
911.229, 994.074
911.712, 973.181
912.194, 939.543
912.676, 929.053
913.158, 945.295
913.640, 956.169
914.122, 935.397
914.604, 915.866
915.086, 916.823
915.568, 938.147
916.051, 959.534
916.533, 981.591
917.015, 998.723
917.497, 1002.347
917.979, 1002.915
918.461, 1015.416
918.943, 1041.600
919.425, 1088.365
919.908, 1180.991
920.390, 1270.831
920.872, 1332.367
921.354, 1376.281
921.836, 1432.772
922.318, 1504.405
922.800, 1580.915
923.282, 1657.590
923.765, 1739.520
924.247, 1836.726
924.729, 1946.952
925.211, 2065.112
925.693, 2188.377
926.175, 2320.353
926.657, 2461.473
927.139, 2613.685
927.622, 2777.436
928.104, 2955.549
928.586, 3134.662
929.068, 3308.653
929.550, 3494.890
930.032, 3725.176
930.514, 3978.968
930.996, 4217.377
931.478, 4430.027
931.961, 4650.896
932.443, 4901.527
932.925, 5164.224
933.407, 5425.588
933.889, 5691.950
934.371, 5940.558
934.853, 6174.951
935.335, 6392.992
935.817, 6608.884
936.300, 6804.486
936.782, 6948.763
937.264, 7041.454
937.746, 7090.138
938.228, 7110.510
938.710, 7074.068
939.192, 6956.027
939.674, 6766.549
940.156, 6527.495
940.639, 6204.201
941.121, 5973.921
941.603, 5940.859
942.085, 5945.667
942.567, 5665.259
943.049, 5192.273
943.531, 4758.525
944.013, 4457.741
944.495, 4187.515
944.978, 3916.339
945.460, 3646.472
945.942, 3379.329
946.424, 3097.844
946.906, 2877.333
947.388, 2731.907
947.870, 2613.780
948.352, 2470.289
948.835, 2316.043
949.317, 2180.694
949.799, 2067.949
950.281, 1966.744
950.763, 1882.661
951.245, 1799.349
951.727, 1703.046
952.209, 1592.948
952.692, 1510.158
953.174, 1460.281
953.656, 1401.062
954.138, 1284.486
954.620, 1154.566
955.102, 1095.980
955.584, 1083.741
956.066, 1060.273
956.549, 1026.154
957.031, 949.541
957.513, 927.832
957.995, 884.128
958.477, 839.526
958.959, 825.567
959.441, 755.157
959.923, 740.729
960.405, 703.973
960.888, 677.452
961.370, 628.807
961.852, 587.015
962.334, 567.365
962.816, 510.842
963.298, 488.741
963.780, 446.080
964.262, 387.865
964.744, 313.494
965.227, 259.371
965.709, 226.741
966.191, 206.233
966.673, 177.574
967.155, 165.452
967.637, 133.010
968.119, 146.636
968.601, 149.088
969.083, 140.963
969.566, 90.568
970.048, 94.765
970.530, 77.092
971.012, 58.521
971.494, 58.370
971.976, 51.316
972.458, 25.555
972.940, 1.020
973.422, 5.130
973.905, 0.454
974.387, 7.138
974.869, 18.450
975.351, 21.017
975.833, 12.399
976.315, 1.936
976.797, 17.766
977.279, 26.832
977.762, 11.538
978.244, 1.874
978.726, 8.799
979.208, 0.164
979.690, 11.643
980.172, 17.296
980.654, 16.129
981.136, 16.234
981.619, 19.284
982.101, 16.951
982.583, 1.253
983.065, 23.498
983.547, 20.869
984.029, 0.363
984.511, 19.099
984.993, 24.197
985.476, 20.484
985.958, 16.286
986.440, 12.429
986.922, 10.014
987.404, 8.667
987.886, 11.113
988.368, 17.745
988.850, 16.495
989.332, 7.130
989.815, 31.017
990.297, 33.848
990.779, 6.317
991.261, 10.983
991.743, 3.533
992.225, 16.315
992.707, 8.297
993.189, 18.437
993.672, 0.287
994.154, 18.567
994.636, 29.967
995.118, 21.095
995.600, 15.097
996.082, 40.365
996.564, 85.254
997.046, 109.458
997.528, 92.619
998.011, 85.833
998.493, 98.007
998.975, 121.435
999.457, 148.643
999.939, 176.619
1000.421, 195.801
1000.903, 201.926
1001.385, 207.225
1001.867, 216.313
1002.350, 227.330
1002.832, 239.752
1003.314, 254.311
1003.796, 277.093
1004.278, 309.307
1004.760, 342.828
1005.242, 370.125
1005.724, 395.879
1006.207, 434.517
1006.689, 480.056
1007.171, 511.702
1007.653, 496.303
1008.135, 502.688
1008.617, 555.152
1009.099, 632.326
1009.581, 695.817
1010.063, 744.382
1010.546, 782.261
1011.028, 804.094
1011.510, 826.966
1011.992, 876.285
1012.474, 930.181
1012.956, 961.007
1013.438, 951.780
1013.920, 969.969
1014.403, 1029.267
1014.885, 1092.363
1015.367, 1137.410
1015.849, 1167.960
1016.331, 1190.710
1016.813, 1209.143
1017.295, 1242.280
1017.777, 1317.273
1018.259, 1391.682
1018.742, 1444.258
1019.224, 1481.526
1019.706, 1512.738
1020.188, 1530.135
1020.670, 1587.988
1021.152, 1703.840
1021.634, 1829.036
1022.116, 1901.544
1022.599, 1946.264
1023.081, 1997.102
1023.563, 2059.262
1024.045, 2133.125
1024.527, 2239.865
1025.009, 2332.949
1025.491, 2385.774
1025.973, 2404.154
1026.455, 2434.024
1026.938, 2472.825
1027.420, 2497.591
1027.902, 2487.656
1028.384, 2467.558
1028.866, 2460.775
1029.348, 2454.792
1029.830, 2420.405
1030.312, 2344.324
1030.794, 2275.839
1031.277, 2225.250
1031.759, 2171.414
1032.241, 2085.071
1032.723, 1977.369
1033.205, 1867.313
1033.687, 1756.046
1034.169, 1659.907
1034.651, 1603.317
1035.134, 1545.237
1035.616, 1464.404
1036.098, 1365.517
1036.580, 1285.272
1037.062, 1224.411
1037.544, 1160.030
1038.026, 1081.149
1038.508, 996.679
1038.990, 905.756
1039.473, 817.213
1039.955, 748.210
1040.437, 706.103
1040.919, 674.997
1041.401, 662.931
1041.883, 647.752
1042.365, 595.938
1042.847, 523.636
1043.329, 472.936
1043.812, 446.395
1044.294, 432.798
1044.776, 447.081
1045.258, 451.228
1045.740, 422.199
1046.222, 370.385
1046.704, 330.499
1047.186, 302.780
1047.669, 282.142
1048.151, 270.700
1048.633, 264.037
1049.115, 263.803
1049.597, 257.959
1050.079, 225.634
1050.561, 131.521
1051.043, 98.028
1051.526, 153.759
1052.008, 212.524
1052.490, 208.029
1052.972, 157.482
1053.454, 106.063
1053.936, 57.391
1054.418, 28.538
1054.900, 46.602
1055.382, 65.494
1055.865, 68.678
1056.347, 60.140
1056.829, 41.272
1057.311, 11.902
1057.793, 10.311
1058.275, 11.475
1058.757, 16.231
1059.239, 18.797
1059.721, 2.059
1060.204, 3.070
1060.686, 9.546
1061.168, 12.865
1061.650, 4.818
1062.132, 4.476
1062.614, 11.863
1063.096, 6.838
1063.578, 18.354
1064.061, 19.863
1064.543, 0.043
1065.025, 8.072
1065.507, 1.047
1065.989, 17.117
1066.471, 21.397
1066.953, 15.306
1067.435, 6.862
1067.917, 9.742
1068.400, 0.011
1068.882, 4.267
1069.364, 22.542
1069.846, 10.518
1070.328, 7.859
1070.810, 9.866
1071.292, 15.471
1071.774, 48.403
1072.256, 74.750
1072.739, 84.389
1073.221, 88.078
1073.703, 105.077
1074.185, 127.828
1074.667, 140.204
1075.149, 131.882
1075.631, 137.426
1076.114, 182.082
1076.596, 223.116
1077.078, 233.220
1077.560, 218.401
1078.042, 223.828
1078.524, 247.396
1079.006, 270.741
1079.488, 268.571
1079.970, 280.642
1080.453, 340.671
1080.935, 427.109
1081.417, 499.397
1081.899, 555.564
1082.381, 604.651
1082.863, 646.762
1083.345, 688.882
1083.827, 734.369
1084.309, 786.657
1084.792, 853.975
1085.274, 936.080
1085.756, 1009.940
1086.238, 1073.454
1086.720, 1126.112
1087.202, 1167.606
1087.684, 1198.828
1088.166, 1221.665
1088.649, 1235.838
1089.131, 1241.927
1089.613, 1243.344
1090.095, 1226.543
1090.577, 1168.863
1091.059, 1106.182
1091.541, 1068.199
1092.023, 1053.386
1092.505, 992.956
1092.988, 889.144
1093.470, 789.863
1093.952, 729.993
1094.434, 680.143
1094.916, 613.475
1095.398, 542.807
1095.880, 497.857
1096.362, 493.628
1096.844, 462.172
1097.327, 391.391
1097.809, 322.461
1098.291, 297.529
1098.773, 299.219
1099.255, 312.927
1099.737, 334.538
1100.219, 331.113
1100.701, 273.313
1101.184, 222.785
1101.666, 194.754
1102.148, 181.706
1102.630, 171.161
1103.112, 161.932
1103.594, 150.049
1104.076, 133.673
1104.558, 117.668
1105.041, 104.478
1105.523, 92.187
1106.005, 79.183
1106.487, 65.565
1106.969, 55.514
1107.451, 48.859
1107.933, 44.484
1108.415, 45.517
1108.897, 44.266
1109.380, 28.157
1109.862, 8.772
1110.344, 6.498
1110.826, 30.139
1111.308, 42.756
1111.790, 42.795
1112.272, 34.422
1112.754, 14.080
1113.236, 7.625
1113.719, 10.524
1114.201, 0.867
1114.683, 6.202
1115.165, 1.810
1115.647, 27.278
1116.129, 3.847
1116.611, 11.822
1117.093, 9.434
1117.576, 11.017
1118.058, 12.533
1118.540, 15.293
1119.022, 21.130
1119.504, 37.883
1119.986, 48.350
1120.468, 43.090
1120.950, 26.598
1121.432, 14.207
1121.915, 7.162
1122.397, 6.408
1122.879, 9.948
1123.361, 19.302
1123.843, 45.299
1124.325, 73.530
1124.807, 90.471
1125.289, 96.168
1125.771, 97.928
1126.254, 98.018
1126.736, 99.880
1127.218, 109.380
1127.700, 119.025
1128.182, 119.834
1128.664, 115.682
1129.146, 115.348
1129.628, 115.937
1130.111, 135.446
1130.593, 177.774
1131.075, 220.876
1131.557, 242.208
1132.039, 249.894
1132.521, 247.408
1133.003, 237.500
1133.485, 247.803
1133.968, 298.695
1134.450, 342.684
1134.932, 371.966
1135.414, 386.790
1135.896, 372.562
1136.378, 347.026
1136.860, 359.445
1137.342, 426.747
1137.824, 480.980
1138.307, 479.305
1138.789, 480.918
1139.271, 514.012
1139.753, 571.987
1140.235, 618.656
1140.717, 655.373
1141.199, 695.892
1141.681, 741.902
1142.163, 796.972
1142.646, 873.247
1143.128, 949.581
1143.610, 1003.052
1144.092, 1031.730
1144.574, 1083.583
1145.056, 1158.261
1145.538, 1247.749
1146.020, 1359.157
1146.503, 1471.001
1146.985, 1567.578
1147.467, 1657.710
1147.949, 1760.048
1148.431, 1881.316
1148.913, 1999.622
1149.395, 2113.279
1149.877, 2221.435
1150.359, 2313.584
1150.842, 2403.800
1151.324, 2509.837
1151.806, 2629.050
1152.288, 2737.905
1152.770, 2842.646
1153.252, 2908.363
1153.734, 2923.167
1154.216, 2910.794
1154.698, 2905.950
1155.181, 2891.709
1155.663, 2841.557
1156.145, 2750.559
1156.627, 2644.838
1157.109, 2533.577
1157.591, 2397.544
1158.073, 2221.104
1158.555, 2028.373
1159.038, 1862.512
1159.520, 1717.974
1160.002, 1584.151
1160.484, 1454.943
1160.966, 1345.770
1161.448, 1270.887
1161.930, 1196.826
1162.412, 1100.458
1162.895, 990.114
1163.377, 897.917
1163.859, 822.639
1164.341, 763.488
1164.823, 739.372
1165.305, 705.250
1165.787, 638.411
1166.269, 566.515
1166.751, 515.827
1167.234, 484.638
1167.716, 434.814
1168.198, 370.380
1168.680, 326.953
1169.162, 354.290
1169.644, 374.387
1170.126, 344.895
1170.608, 293.679
1171.090, 253.493
1171.573, 220.837
1172.055, 205.310
1172.537, 209.600
1173.019, 214.781
1173.501, 206.120
1173.983, 196.886
1174.465, 195.574
1174.947, 197.357
1175.430, 186.294
1175.912, 161.510
1176.394, 139.795
1176.876, 124.747
1177.358, 113.202
1177.840, 106.099
1178.322, 98.136
1178.804, 79.183
1179.286, 52.081
1179.769, 50.660
1180.251, 77.338
1180.733, 96.511
1181.215, 95.532
1181.697, 86.267
1182.179, 78.700
1182.661, 70.853
1183.143, 57.324
1183.625, 34.982
1184.108, 38.674
1184.590, 73.905
1185.072, 97.051
1185.554, 81.982
1186.036, 50.591
1186.518, 17.216
1187.000, 11.567
1187.482, 14.428
1187.965, 10.609
1188.447, 3.932
1188.929, 4.515
1189.411, 7.404
1189.893, 11.130
1190.375, 13.880
1190.857, 14.511
1191.339, 11.900
1191.822, 2.559
1192.304, 23.553
1192.786, 35.254
1193.268, 29.816
1193.750, 15.940
1194.232, 11.975
1194.714, 1.998
1195.196, 7.861
1195.678, 53.223
1196.161, 63.100
1196.643, 4.299
1197.125, 54.408
1197.607, 24.798
1198.089, 5.936
1198.571, 6.686
1199.053, 0.805
1199.535, 0.212
1200.017, 6.331
1200.500, 15.202
1200.982, 31.922
1201.464, 41.878
1201.946, 44.848
1202.428, 40.847
1202.910, 18.741
1203.392, 5.494
1203.874, 5.214
1204.357, 58.910
1204.839, 72.294
1205.321, 3.031
1205.803, 17.705
1206.285, 6.315
1206.767, 6.484
1207.249, 18.185
1207.731, 13.752
1208.214, 14.517
1208.696, 26.379
1209.178, 34.649
1209.660, 37.499
1210.142, 35.738
1210.624, 24.512
1211.106, 15.718
1211.588, 42.528
1212.070, 86.039
1212.552, 106.795
1213.035, 82.920
1213.517, 70.711
1213.999, 81.841
1214.481, 85.994
1214.963, 63.531
1215.445, 83.602
1215.927, 93.307
1216.409, 93.228
1216.892, 54.102
1217.374, 65.361
1217.856, 56.409
1218.338, 46.614
1218.820, 64.924
1219.302, 50.146
1219.784, 44.702
1220.266, 38.166
1220.749, 31.432
1221.231, 27.029
1221.713, 34.779
1222.195, 28.454
1222.677, 2.642
1223.159, 12.265
1223.641, 6.152
1224.123, 30.230
1224.605, 38.330
1225.088, 21.197
1225.570, 9.812
1226.052, 21.824
1226.534, 29.160
1227.016, 30.785
1227.498, 23.839
1227.980, 1.806
1228.462, 37.023
1228.944, 16.038
1229.427, 41.579
1229.909, 79.449
1230.391, 35.902
1230.873, 9.954
1231.355, 15.181
1231.837, 36.405
1232.319, 49.063
1232.801, 20.886
1233.284, 61.932
1233.766, 86.152
1234.248, 94.457
1234.730, 39.222
1235.212, 66.008
1235.694, 59.905
1236.176, 52.445
1236.658, 90.740
1237.141, 44.694
1237.623, 80.931
1238.105, 81.875
1238.587, 99.993
1239.069, 84.034
1239.551, 77.211
1240.033, 104.688
1240.515, 115.647
1240.997, 97.715
1241.480, 113.956
1241.962, 80.317
1242.444, 108.590
1242.926, 115.994
1243.408, 117.200
1243.890, 99.883
1244.372, 62.856
1244.854, 28.122
1245.337, 31.888
1245.819, 50.822
1246.301, 59.373
1246.783, 50.413
1247.265, 46.447
1247.747, 61.846
1248.229, 79.726
1248.711, 99.081
1249.193, 113.131
1249.676, 115.313
1250.158, 107.668
1250.640, 85.875
1251.122, 48.009
1251.604, 31.903
1252.086, 39.085
1252.568, 54.043
1253.050, 78.686
1253.532, 92.698
1254.015, 58.809
1254.497, 14.723
1254.979, 9.320
1255.461, 44.545
1255.943, 41.809
1256.425, 12.784
1256.907, 1.043
1257.389, 34.933
1257.872, 76.166
1258.354, 86.879
1258.836, 85.616
1259.318, 73.803
1259.800, 44.613
1260.282, 26.311
1260.764, 17.235
1261.246, 18.974
1261.729, 37.555
1262.211, 54.887
1262.693, 64.298
1263.175, 64.924
1263.657, 52.441
1264.139, 28.129
1264.621, 14.995
1265.103, 12.733
1265.585, 18.264
1266.068, 39.938
1266.550, 55.883
1267.032, 62.351
1267.514, 57.731
1267.996, 29.785
1268.478, 3.877
1268.960, 4.456
1269.442, 22.205
1269.924, 43.098
1270.407, 8.359
1270.889, 5.832
1271.371, 7.532
1271.853, 30.902
1272.335, 29.977
1272.817, 15.107
1273.299, 29.828
1273.781, 63.803
1274.264, 84.917
1274.746, 64.548
1275.228, 57.717
1275.710, 72.115
1276.192, 89.426
1276.674, 92.372
1277.156, 88.321
1277.638, 88.226
1278.120, 90.089
1278.603, 77.360
1279.085, 65.305
1279.567, 45.533
1280.049, 26.106
1280.531, 12.492
1281.013, 18.697
1281.495, 30.305
1281.977, 29.883
1282.459, 20.848
1282.942, 14.606
1283.424, 12.077
1283.906, 14.674
1284.388, 22.789
1284.870, 26.968
1285.352, 12.565
1285.834, 0.485
1286.316, 2.181
1286.799, 16.147
1287.281, 14.075
1287.763, 0.000
##END=



