##NAMES=Swedenborgite
##RRUFFID=R060486
##IDEAL CHEMISTRY=NaBe_4_Sb^5+^O_7_
##LOCALITY=Langban, Filipstad, Varmland, Sweden
##OWNER=RRUFF
##SOURCE=Michael Scott
##DESCRIPTION=Colorless glassy fragment in center of the photo
##STATUS=The identification of this mineral is confirmed by single-crystal X-ray diffraction and chemical analysis.
##URL=rruff.info/R060486
##MEASURED CHEMISTRY=(Na_0.94_Ca_0.03_[box]_0.03_)_Î£=1_Be_4.00_Sb^5+^_1.00_O_7_; trace amounts of As; Be estimated by difference
86.809, 0.000
87.291, 0.804
87.774, 5.952
88.256, 19.428
88.738, 35.136
89.220, 53.008
89.702, 70.706
90.184, 84.433
90.666, 96.081
91.148, 116.438
91.631, 148.225
92.113, 176.219
92.595, 201.887
93.077, 230.697
93.559, 247.559
94.041, 244.930
94.523, 231.967
95.005, 240.918
95.487, 309.074
95.970, 386.659
96.452, 394.245
96.934, 359.941
97.416, 315.293
97.898, 258.459
98.380, 187.941
98.862, 128.665
99.344, 95.069
99.826, 88.812
100.309, 78.806
100.791, 63.979
101.273, 45.927
101.755, 29.287
102.237, 15.356
102.719, 0.447
103.201, 23.741
103.683, 62.706
104.165, 86.779
104.648, 94.649
105.130, 85.723
105.612, 54.791
106.094, 13.271
106.576, 90.735
107.058, 153.956
107.540, 186.786
108.022, 226.775
108.505, 281.755
108.987, 353.168
109.469, 429.212
109.951, 508.525
110.433, 591.522
110.915, 680.193
111.397, 763.211
111.879, 860.125
112.362, 976.228
112.844, 1103.764
113.326, 1265.948
113.808, 1502.058
114.290, 1778.689
114.772, 2013.339
115.254, 2221.660
115.736, 2359.597
116.218, 2396.523
116.701, 2234.280
117.183, 2077.636
117.665, 2002.431
118.147, 1999.378
118.629, 2014.622
119.111, 2030.159
119.593, 2048.753
120.075, 2072.696
120.558, 2103.622
121.040, 2139.699
121.522, 2185.467
122.004, 2241.490
122.486, 2287.238
122.968, 2318.179
123.450, 2328.312
123.932, 2306.585
124.414, 2225.333
124.897, 2117.702
125.379, 2017.378
125.861, 1923.955
126.343, 1854.362
126.825, 1833.130
127.307, 1854.456
127.789, 1893.786
128.271, 1944.115
128.753, 2001.029
129.236, 2051.603
129.718, 2089.822
130.200, 2126.542
130.682, 2193.948
131.164, 2290.969
131.646, 2369.417
132.128, 2358.028
132.610, 2273.647
133.093, 2249.398
133.575, 2333.681
134.057, 2498.076
134.539, 2646.931
135.021, 2779.781
135.503, 2898.927
135.985, 2993.430
136.467, 3059.642
136.949, 3150.800
137.432, 3287.763
137.914, 3470.783
138.396, 3658.573
138.878, 3851.561
139.360, 4045.347
139.842, 4229.483
140.324, 4397.140
140.806, 4571.868
141.288, 4755.118
141.771, 4935.800
142.253, 5167.686
142.735, 5438.221
143.217, 5764.149
143.699, 6183.858
144.181, 6725.259
144.663, 7329.000
145.145, 7983.511
145.628, 8724.144
146.110, 9436.605
146.592, 10089.149
147.074, 10697.723
147.556, 11337.449
148.038, 11959.938
148.520, 12660.688
149.002, 13490.249
149.484, 14461.702
149.967, 15565.139
150.449, 16874.463
150.931, 18427.277
151.413, 19802.201
151.895, 21241.480
152.377, 22404.529
152.859, 22960.389
153.342, 22780.887
153.824, 22125.885
154.306, 20948.975
154.788, 19143.596
155.270, 17344.111
155.752, 15509.592
156.234, 13741.067
156.716, 12154.374
157.198, 10806.590
157.680, 9631.614
158.163, 8629.571
158.645, 7824.150
159.127, 7122.533
159.609, 6521.829
160.091, 6007.059
160.573, 5546.948
161.055, 5122.543
161.538, 4756.934
162.020, 4477.308
162.502, 4329.976
162.984, 4202.503
163.466, 4037.331
163.948, 3853.605
164.430, 3706.203
164.912, 3640.718
165.394, 3614.198
165.876, 3592.147
166.359, 3559.967
166.841, 3535.918
167.323, 3539.708
167.805, 3566.779
168.287, 3585.632
168.769, 3554.827
169.251, 3512.318
169.733, 3501.999
170.216, 3562.830
170.698, 3646.551
171.180, 3708.192
171.662, 3748.958
172.144, 3809.038
172.626, 3921.122
173.108, 4072.330
173.590, 4243.008
174.072, 4452.103
174.555, 4662.919
175.037, 4847.043
175.519, 5005.429
176.001, 5119.831
176.483, 5152.942
176.965, 5122.438
177.447, 5073.892
177.929, 5063.740
178.412, 5041.564
178.894, 4912.959
179.376, 4657.112
179.858, 4358.275
180.340, 4087.128
180.822, 3847.540
181.304, 3650.732
181.786, 3538.109
182.268, 3472.269
182.751, 3365.402
183.233, 3200.855
183.715, 3007.823
184.197, 2824.807
184.679, 2650.598
185.161, 2488.238
185.643, 2345.834
186.125, 2217.844
186.607, 2070.571
187.090, 1888.380
187.572, 1702.840
188.054, 1572.579
188.536, 1498.330
189.018, 1451.279
189.500, 1415.246
189.982, 1389.901
190.464, 1372.119
190.947, 1364.964
191.429, 1361.179
191.911, 1339.495
192.393, 1299.934
192.875, 1258.939
193.357, 1231.507
193.839, 1217.237
194.321, 1201.558
194.803, 1182.528
195.286, 1159.405
195.768, 1116.138
196.250, 1043.208
196.732, 993.466
197.214, 1046.448
197.696, 1211.307
198.178, 1338.879
198.661, 1385.410
199.143, 1357.862
199.625, 1303.969
200.107, 1213.514
200.589, 1122.270
201.071, 1076.760
201.553, 1082.183
202.035, 1097.871
202.517, 1108.172
202.999, 1113.334
203.482, 1146.204
203.964, 1216.024
204.446, 1296.895
204.928, 1347.209
205.410, 1358.328
205.892, 1374.863
206.374, 1410.852
206.857, 1466.658
207.339, 1538.845
207.821, 1630.964
208.303, 1734.762
208.785, 1830.646
209.267, 1908.029
209.749, 2012.054
210.231, 2182.786
210.713, 2450.531
211.195, 2632.216
211.678, 2738.497
212.160, 2751.096
212.642, 2610.900
213.124, 2268.239
213.606, 1896.500
214.088, 1566.133
214.570, 1269.800
215.052, 1033.851
215.535, 865.213
216.017, 751.161
216.499, 666.063
216.981, 617.798
217.463, 580.711
217.945, 541.943
218.427, 499.268
218.909, 461.916
219.391, 430.333
219.874, 403.994
220.356, 383.500
220.838, 374.077
221.320, 361.248
221.802, 335.270
222.284, 288.545
222.766, 249.899
223.248, 223.377
223.731, 206.272
224.213, 187.264
224.695, 162.295
225.177, 142.042
225.659, 135.878
226.141, 157.505
226.623, 160.137
227.105, 131.477
227.587, 80.184
228.070, 48.251
228.552, 40.846
229.034, 45.673
229.516, 54.583
229.998, 63.927
230.480, 87.587
230.962, 143.972
231.444, 220.245
231.926, 232.299
232.409, 141.938
232.891, 35.097
233.373, 30.979
233.855, 38.527
234.337, 39.475
234.819, 33.593
235.301, 23.025
235.783, 30.181
236.266, 68.859
236.748, 108.390
237.230, 126.133
237.712, 110.099
238.194, 95.282
238.676, 84.033
239.158, 76.619
239.640, 79.121
240.122, 99.511
240.605, 120.310
241.087, 127.553
241.569, 112.544
242.051, 100.898
242.533, 99.740
243.015, 107.388
243.497, 99.033
243.980, 60.466
244.462, 22.226
244.944, 10.540
245.426, 43.043
245.908, 67.586
246.390, 75.346
246.872, 67.728
247.354, 63.041
247.836, 67.992
248.318, 68.853
248.801, 52.468
249.283, 6.954
249.765, 30.744
250.247, 55.533
250.729, 67.459
251.211, 71.608
251.693, 66.460
252.176, 55.795
252.658, 40.945
253.140, 15.989
253.622, 1.510
254.104, 4.118
254.586, 22.458
255.068, 34.900
255.550, 35.410
256.032, 38.253
256.514, 56.393
256.997, 96.840
257.479, 136.875
257.961, 175.335
258.443, 211.980
258.925, 237.144
259.407, 245.570
259.889, 250.719
260.371, 264.432
260.854, 290.512
261.336, 313.991
261.818, 330.530
262.300, 341.259
262.782, 354.310
263.264, 352.989
263.746, 381.720
264.228, 500.625
264.711, 768.758
265.193, 935.806
265.675, 933.335
266.157, 788.242
266.639, 707.969
267.121, 710.615
267.603, 744.739
268.085, 770.640
268.567, 782.860
269.050, 808.192
269.532, 851.543
270.014, 911.068
270.496, 981.947
270.978, 1067.614
271.460, 1153.018
271.942, 1224.393
272.424, 1276.987
272.906, 1339.698
273.389, 1418.637
273.871, 1511.317
274.353, 1608.739
274.835, 1709.693
275.317, 1815.445
275.799, 1932.283
276.281, 2062.199
276.763, 2179.253
277.246, 2277.264
277.728, 2360.450
278.210, 2445.714
278.692, 2533.955
279.174, 2618.841
279.656, 2699.483
280.138, 2776.072
280.620, 2838.218
281.103, 2884.060
281.585, 2914.657
282.067, 2931.800
282.549, 2934.841
283.031, 2928.246
283.513, 2913.126
283.995, 2889.765
284.477, 2866.389
284.959, 2847.439
285.441, 2824.664
285.924, 2775.126
286.406, 2697.754
286.888, 2618.638
287.370, 2550.768
287.852, 2494.592
288.334, 2453.153
288.816, 2423.760
289.298, 2415.063
289.781, 2443.781
290.263, 2509.396
290.745, 2600.045
291.227, 2703.099
291.709, 2823.920
292.191, 2982.550
292.673, 3191.551
293.155, 3412.987
293.638, 3601.188
294.120, 3752.027
294.602, 3861.131
295.084, 3922.007
295.566, 3942.226
296.048, 3925.832
296.530, 3863.783
297.012, 3803.970
297.494, 3816.101
297.977, 3885.372
298.459, 3953.591
298.941, 3990.201
299.423, 4009.451
299.905, 4035.518
300.387, 4072.016
300.869, 4099.012
301.351, 4083.469
301.833, 4043.425
302.316, 4023.938
302.798, 4045.804
303.280, 4092.740
303.762, 4131.557
304.244, 4157.479
304.726, 4241.735
305.208, 4438.748
305.690, 4735.762
306.173, 5114.375
306.655, 5577.142
307.137, 6112.479
307.619, 6741.091
308.101, 7458.527
308.583, 8147.747
309.065, 8653.424
309.547, 9092.906
310.030, 9617.605
310.512, 10265.150
310.994, 11033.611
311.476, 11885.839
311.958, 12832.130
312.440, 13983.420
312.922, 15372.080
313.404, 17017.285
313.886, 18942.287
314.369, 21116.977
314.851, 23617.844
315.333, 26954.307
315.815, 30860.801
316.297, 33806.531
316.779, 35577.496
317.261, 35907.133
317.743, 34538.402
318.225, 30317.889
318.708, 25730.154
319.190, 21239.029
319.672, 16961.391
320.154, 13365.728
320.636, 10749.694
321.118, 8738.172
321.600, 7145.903
322.082, 6057.637
322.565, 5198.548
323.047, 4587.988
323.529, 4176.339
324.011, 3857.606
324.493, 3633.414
324.975, 3484.551
325.457, 3410.668
325.939, 3443.752
326.422, 3484.646
326.904, 3531.648
327.386, 3582.021
327.868, 3630.784
328.350, 3634.125
328.832, 3679.777
329.314, 3790.197
329.796, 3969.640
330.278, 4198.880
330.760, 4459.262
331.243, 4776.581
331.725, 5184.223
332.207, 5674.553
332.689, 6272.613
333.171, 7004.783
333.653, 7886.254
334.135, 8786.944
334.617, 9944.504
335.100, 10847.814
335.582, 10940.035
336.064, 10012.488
336.546, 8827.460
337.028, 7399.391
337.510, 5796.022
337.992, 4514.824
338.474, 3586.717
338.957, 2908.060
339.439, 2418.984
339.921, 2134.288
340.403, 1946.674
340.885, 1858.250
341.367, 1848.497
341.849, 1852.236
342.331, 1864.516
342.813, 1920.057
343.296, 2037.198
343.778, 2215.201
344.260, 2464.006
344.742, 2789.571
345.224, 3173.898
345.706, 3682.426
346.188, 4308.946
346.670, 4688.485
347.152, 4537.626
347.635, 3965.390
348.117, 3310.644
348.599, 2567.657
349.081, 1862.442
349.563, 1362.600
350.045, 1047.090
350.527, 826.021
351.009, 702.051
351.491, 636.342
351.974, 569.533
352.456, 499.464
352.938, 436.699
353.420, 398.026
353.902, 372.519
354.384, 339.377
354.866, 270.078
355.349, 205.213
355.831, 196.837
356.313, 238.414
356.795, 267.497
357.277, 237.194
357.759, 176.741
358.241, 116.601
358.723, 56.845
359.205, 10.761
359.688, 10.193
360.170, 10.518
360.652, 5.724
361.134, 8.590
361.616, 18.427
362.098, 10.829
362.580, 32.728
363.062, 60.331
363.544, 40.146
364.027, 5.321
364.509, 32.954
364.991, 18.481
365.473, 3.984
365.955, 20.934
366.437, 28.505
366.919, 41.080
367.401, 63.409
367.884, 90.191
368.366, 115.201
368.848, 146.361
369.330, 166.332
369.812, 168.156
370.294, 150.221
370.776, 138.165
371.258, 136.912
371.741, 137.531
372.223, 134.961
372.705, 137.164
373.187, 118.681
373.669, 67.393
374.151, 8.479
374.633, 57.932
375.115, 63.547
375.597, 79.195
376.079, 154.887
376.562, 312.891
377.044, 390.784
377.526, 351.443
378.008, 256.626
378.490, 236.585
378.972, 298.730
379.454, 377.843
379.936, 446.707
380.419, 506.383
380.901, 568.309
381.383, 628.876
381.865, 705.573
382.347, 810.433
382.829, 947.053
383.311, 1129.100
383.793, 1354.263
384.276, 1630.458
384.758, 1994.605
385.240, 2444.798
385.722, 2920.144
386.204, 3361.071
386.686, 3797.159
387.168, 4280.787
387.650, 4837.059
388.132, 5444.069
388.615, 6074.855
389.097, 6739.582
389.579, 7455.861
390.061, 8140.081
390.543, 8930.393
391.025, 9945.115
391.507, 11196.560
391.989, 12694.447
392.471, 14356.017
392.954, 16282.146
393.436, 18619.389
393.918, 21321.684
394.400, 24533.896
394.882, 28689.551
395.364, 33973.023
395.846, 38444.996
396.328, 42971.676
396.810, 45914.684
397.293, 45727.004
397.775, 39687.734
398.257, 33188.836
398.739, 26590.932
399.221, 20059.389
399.703, 14857.920
400.185, 11417.042
400.668, 8935.910
401.150, 7025.414
401.632, 5870.232
402.114, 4958.127
402.596, 4325.730
403.078, 3911.372
403.560, 3577.768
404.042, 3332.798
404.524, 3145.660
405.007, 3005.518
405.489, 2913.396
405.971, 2859.174
406.453, 2842.201
406.935, 2864.907
407.417, 2932.077
407.899, 3043.545
408.381, 3187.436
408.863, 3351.354
409.346, 3548.416
409.828, 3809.498
410.310, 4134.154
410.792, 4547.885
411.274, 5029.113
411.756, 5606.414
412.238, 6365.190
412.720, 7294.379
413.203, 8470.658
413.685, 10060.123
414.167, 12024.192
414.649, 14165.952
415.131, 16512.895
415.613, 18917.910
416.095, 21141.869
416.577, 23159.004
417.060, 25161.873
417.542, 27175.898
418.024, 29298.139
418.506, 31721.535
418.988, 34422.785
419.470, 37471.938
419.952, 40647.992
420.434, 44033.684
420.916, 48357.184
421.398, 53548.062
421.881, 59982.957
422.363, 67976.625
422.845, 76795.141
423.327, 88105.117
423.809, 101828.422
424.291, 118102.227
424.773, 137853.094
425.255, 171004.781
425.738, 197476.203
426.220, 211614.609
426.702, 213137.484
427.184, 201837.438
427.666, 171291.156
428.148, 133364.656
428.630, 101558.570
429.112, 76286.742
429.595, 56218.562
430.077, 41928.238
430.559, 32840.430
431.041, 25783.811
431.523, 20848.771
432.005, 17173.943
432.487, 14280.620
432.969, 12148.631
433.451, 10383.855
433.934, 8977.851
434.416, 7843.094
434.898, 6864.973
435.380, 6038.565
435.862, 5328.910
436.344, 4737.287
436.826, 4245.259
437.308, 3831.656
437.790, 3498.432
438.273, 3203.033
438.755, 2906.642
439.237, 2625.722
439.719, 2389.989
440.201, 2234.227
440.683, 2107.089
441.165, 1971.852
441.647, 1830.755
442.129, 1695.778
442.612, 1576.625
443.094, 1463.790
443.576, 1342.318
444.058, 1202.422
444.540, 1083.707
445.022, 1005.387
445.504, 952.696
445.987, 902.664
446.469, 864.762
446.951, 815.936
447.433, 742.002
447.915, 641.011
448.397, 564.186
448.879, 524.000
449.361, 496.290
449.843, 460.823
450.326, 404.285
450.808, 375.721
451.290, 390.362
451.772, 430.100
452.254, 445.699
452.736, 434.133
453.218, 408.183
453.700, 367.673
454.182, 315.340
454.665, 273.628
455.147, 239.966
455.629, 222.903
456.111, 251.702
456.593, 318.295
457.075, 368.275
457.557, 370.117
458.039, 346.013
458.522, 354.481
459.004, 393.243
459.486, 437.770
459.968, 473.527
460.450, 507.366
460.932, 542.360
461.414, 578.588
461.896, 622.156
462.379, 666.497
462.861, 721.836
463.343, 805.063
463.825, 989.464
464.307, 1147.527
464.789, 1226.901
465.271, 1227.181
465.753, 1181.378
466.235, 1078.626
466.717, 942.855
467.200, 785.918
467.682, 449.222
468.164, 318.081
468.646, 542.490
469.128, 948.939
469.610, 1104.350
470.092, 894.827
470.574, 642.590
471.057, 452.632
471.539, 324.014
472.021, 216.693
472.503, 128.731
472.985, 71.102
473.467, 70.536
473.949, 123.406
474.431, 144.763
474.914, 111.897
475.396, 54.422
475.878, 32.625
476.360, 43.511
476.842, 60.179
477.324, 71.432
477.806, 73.853
478.288, 64.215
478.770, 45.004
479.253, 24.018
479.735, 1.709
480.217, 23.600
480.699, 28.388
481.181, 13.468
481.663, 59.058
482.145, 88.013
482.627, 100.341
483.109, 104.947
483.592, 95.912
484.074, 87.446
484.556, 88.687
485.038, 109.281
485.520, 117.306
486.002, 89.151
486.484, 54.279
486.966, 51.690
487.448, 116.188
487.931, 154.821
488.413, 137.781
488.895, 73.481
489.377, 45.462
489.859, 68.042
490.341, 92.978
490.823, 81.797
491.306, 33.856
491.788, 5.827
492.270, 5.394
492.752, 17.363
493.234, 15.342
493.716, 3.036
494.198, 6.165
494.680, 49.826
495.162, 106.928
495.645, 134.931
496.127, 134.546
496.609, 110.784
497.091, 35.345
497.573, 48.128
498.055, 81.998
498.537, 33.702
499.019, 9.774
499.501, 17.545
499.984, 76.663
500.466, 102.213
500.948, 28.275
501.430, 39.137
501.912, 57.991
502.394, 24.247
502.876, 1.644
503.358, 2.775
503.841, 9.774
504.323, 12.454
504.805, 8.137
505.287, 4.930
505.769, 2.728
506.251, 1.245
506.733, 0.696
507.215, 1.281
507.698, 1.300
508.180, 0.775
508.662, 0.923
509.144, 8.433
509.626, 22.369
510.108, 34.397
510.590, 29.562
511.072, 16.701
511.554, 28.785
512.036, 81.933
512.519, 127.859
513.001, 94.206
513.483, 12.098
513.965, 44.992
514.447, 49.787
514.929, 106.685
515.411, 91.300
515.893, 519.987
516.375, 780.795
516.858, 559.037
517.340, 213.695
517.822, 7.946
518.304, 0.774
518.786, 11.398
519.268, 7.598
519.750, 34.271
520.232, 31.908
520.715, 30.394
521.197, 69.524
521.679, 56.846
522.161, 2.163
522.643, 35.430
523.125, 38.211
523.607, 29.809
524.089, 19.039
524.571, 6.666
525.054, 7.373
525.536, 25.047
526.018, 47.629
526.500, 59.361
526.982, 62.006
527.464, 61.990
527.946, 65.578
528.429, 65.758
528.911, 45.092
529.393, 8.979
529.875, 11.283
530.357, 29.912
530.839, 77.938
531.321, 80.773
531.803, 8.584
532.286, 39.188
532.768, 6.121
533.250, 61.596
533.732, 106.471
534.214, 117.979
534.696, 108.031
535.178, 58.982
535.660, 16.238
536.142, 39.492
536.625, 18.734
537.107, 74.541
537.589, 80.684
538.071, 29.572
538.553, 11.619
539.035, 31.750
539.517, 60.773
539.999, 61.895
540.481, 37.910
540.964, 11.012
541.446, 12.799
541.928, 36.838
542.410, 71.082
542.892, 111.418
543.374, 141.547
543.856, 144.594
544.338, 137.844
544.820, 134.189
545.303, 134.121
545.785, 145.877
546.267, 186.430
546.749, 233.393
547.231, 267.682
547.713, 270.148
548.195, 279.535
548.677, 296.971
549.159, 325.621
549.642, 372.365
550.124, 454.174
550.606, 529.162
551.088, 581.229
551.570, 611.137
552.052, 661.029
552.534, 729.641
553.016, 824.170
553.499, 956.848
553.981, 1123.594
554.463, 1286.936
554.945, 1438.670
555.427, 1596.986
555.909, 1777.422
556.391, 1992.525
556.873, 2264.771
557.356, 2586.424
557.838, 2970.014
558.320, 3436.580
558.802, 3984.709
559.284, 4597.111
559.766, 5268.664
560.248, 5995.568
560.730, 6794.838
561.213, 7675.240
561.695, 8543.193
562.177, 9305.348
562.659, 10089.822
563.141, 11009.234
563.623, 12117.217
564.105, 13278.943
564.587, 14447.488
565.069, 15661.633
565.552, 17045.957
566.034, 18585.650
566.516, 20298.293
566.998, 22185.570
567.480, 24238.809
567.962, 26472.629
568.444, 28858.170
568.926, 31615.443
569.408, 34823.242
569.891, 38513.516
570.373, 42667.191
570.855, 47347.789
571.337, 52417.793
571.819, 58383.012
572.301, 64597.188
572.783, 70018.898
573.265, 75647.969
573.747, 79064.797
574.230, 79082.984
574.712, 75891.695
575.194, 70740.617
575.676, 62143.129
576.158, 53119.641
576.640, 44720.336
577.122, 36913.305
577.604, 30307.434
578.086, 25069.727
578.569, 20889.562
579.051, 17498.881
579.533, 14947.148
580.015, 12877.418
580.497, 11283.918
580.979, 10058.848
581.461, 9041.418
581.943, 8225.553
582.426, 7576.803
582.908, 7118.826
583.390, 6789.357
583.872, 6515.949
584.354, 6298.992
584.836, 6125.066
585.318, 5952.799
585.800, 5840.832
586.282, 5842.898
586.765, 5993.354
587.247, 6189.262
587.729, 6395.590
588.211, 6634.033
588.693, 6928.615
589.175, 7283.363
589.657, 7699.486
590.140, 8174.020
590.622, 8705.299
591.104, 9293.213
591.586, 9945.744
592.068, 10634.621
592.550, 11384.982
593.032, 12175.010
593.514, 12861.318
593.996, 13453.104
594.479, 13778.844
594.961, 13670.764
595.443, 13197.697
595.925, 12451.254
596.407, 11402.676
596.889, 10248.900
597.371, 9025.982
597.853, 7815.510
598.335, 6737.059
598.818, 5835.172
599.300, 5064.836
599.782, 4421.363
600.264, 3899.057
600.746, 3459.016
601.228, 3115.217
601.710, 2820.652
602.192, 2562.145
602.674, 2335.559
603.157, 2148.076
603.639, 2011.016
604.121, 1895.074
604.603, 1766.688
605.085, 1628.531
605.567, 1528.580
606.049, 1478.367
606.531, 1455.617
607.013, 1445.238
607.496, 1440.137
607.978, 1419.828
608.460, 1357.180
608.942, 1294.838
609.424, 1268.135
609.906, 1270.248
610.388, 1278.117
610.870, 1286.164
611.353, 1296.336
611.835, 1308.703
612.317, 1324.621
612.799, 1341.160
613.281, 1352.074
613.763, 1371.613
614.245, 1415.348
614.727, 1499.715
615.209, 1547.176
615.692, 1532.951
616.174, 1516.025
616.656, 1595.873
617.138, 1765.695
617.620, 1929.969
618.102, 2055.801
618.584, 2164.008
619.067, 2270.148
619.549, 2384.281
620.031, 2544.008
620.513, 2782.141
620.995, 3059.055
621.477, 3336.559
621.959, 3613.871
622.441, 3939.266
622.923, 4338.391
623.406, 4781.074
623.888, 5248.008
624.370, 5711.986
624.852, 6250.488
625.334, 6875.037
625.816, 7563.576
626.298, 8300.174
626.780, 9096.562
627.263, 9886.377
627.745, 10621.785
628.227, 11369.055
628.709, 12279.033
629.191, 13338.080
629.673, 14451.990
630.155, 15540.238
630.637, 16686.832
631.119, 17923.012
631.602, 19272.941
632.084, 20887.713
632.566, 22977.904
633.048, 25280.389
633.530, 27620.162
634.012, 29942.592
634.494, 32429.488
634.976, 35000.016
635.458, 37821.727
635.941, 41043.180
636.423, 44480.867
636.905, 48694.547
637.387, 53527.906
637.869, 59298.652
638.351, 66796.078
638.833, 76041.594
639.315, 86200.625
639.797, 99440.594
640.280, 111392.102
640.762, 113312.594
641.244, 105927.688
641.726, 93596.711
642.208, 74261.133
642.690, 54271.766
643.172, 38756.219
643.654, 28045.201
644.137, 20069.389
644.619, 14966.059
645.101, 11535.449
645.583, 8967.035
646.065, 7584.393
646.547, 6369.826
647.029, 5341.672
647.511, 4485.908
647.994, 3825.320
648.476, 3386.473
648.958, 3010.934
649.440, 2681.650
649.922, 2390.549
650.404, 2123.957
650.886, 1885.729
651.368, 1687.492
651.851, 1558.826
652.333, 1459.744
652.815, 1334.752
653.297, 1192.000
653.779, 1073.443
654.261, 1013.805
654.743, 976.266
655.225, 939.830
655.707, 902.100
656.190, 872.102
656.672, 877.363
657.154, 870.705
657.636, 815.418
658.118, 684.439
658.600, 583.861
659.082, 511.686
659.564, 478.312
660.046, 518.877
660.529, 625.498
661.011, 703.545
661.493, 715.850
661.975, 711.879
662.457, 762.586
662.939, 854.135
663.421, 947.363
663.903, 1044.271
664.385, 1120.281
664.868, 1168.012
665.350, 1185.412
665.832, 1158.266
666.314, 1054.693
666.796, 931.006
667.278, 804.506
667.760, 671.523
668.242, 561.543
668.724, 479.740
669.207, 408.273
669.689, 333.643
670.171, 254.914
670.653, 175.006
671.135, 93.609
671.617, 6.988
672.099, 94.744
672.581, 204.656
673.064, 307.578
673.546, 397.641
674.028, 479.977
674.510, 558.066
674.992, 629.387
675.474, 689.854
675.956, 719.869
676.438, 756.004
676.920, 815.418
677.403, 888.859
677.885, 936.244
678.367, 947.018
678.849, 954.561
679.331, 976.551
679.813, 1009.438
680.295, 1027.625
680.778, 1031.758
681.260, 1020.324
681.742, 987.826
682.224, 942.947
682.706, 901.354
683.188, 863.736
683.670, 836.846
684.152, 849.990
684.634, 863.744
685.117, 839.604
685.599, 755.438
686.081, 656.586
686.563, 525.170
687.045, 391.148
687.527, 296.953
688.009, 266.748
688.491, 202.508
688.973, 82.568
689.456, 76.611
689.938, 233.141
690.420, 389.232
690.902, 572.430
691.384, 804.139
691.866, 1065.949
692.348, 1329.621
692.830, 1598.797
693.312, 1891.881
693.795, 2219.494
694.277, 2572.307
694.759, 2939.846
695.241, 3319.742
695.723, 3736.809
696.205, 4184.225
696.687, 4688.094
697.169, 5261.570
697.652, 5917.207
698.134, 6588.840
698.616, 7262.355
699.098, 7992.562
699.580, 8836.699
700.062, 9788.379
700.544, 10828.570
701.026, 11958.176
701.508, 13119.832
701.991, 14308.914
702.473, 15473.824
702.955, 16536.695
703.437, 17601.523
703.919, 18398.258
704.401, 18834.781
704.883, 18928.172
705.365, 18708.375
705.847, 18110.867
706.330, 17325.824
706.812, 16319.797
707.294, 15162.723
707.776, 14122.520
708.258, 13205.043
708.740, 12398.301
709.222, 11707.230
709.705, 11112.258
710.187, 10557.527
710.669, 10049.016
711.151, 9653.176
711.633, 9491.934
712.115, 9411.984
712.597, 9272.895
713.079, 9053.199
713.561, 8871.605
714.044, 8821.012
714.526, 8773.816
715.008, 8645.859
715.490, 8407.117
715.972, 8163.371
716.454, 7914.289
716.936, 7660.789
717.418, 7397.758
717.901, 7129.285
718.383, 6889.230
718.865, 6669.746
719.347, 6511.492
719.829, 6480.613
720.311, 6543.930
720.793, 6638.809
721.275, 6727.004
721.757, 6859.809
722.240, 7047.340
722.722, 7298.168
723.204, 7637.988
723.686, 8126.746
724.168, 8624.152
724.650, 9090.371
725.132, 9558.672
725.614, 10158.801
726.096, 10904.824
726.579, 11713.844
727.061, 12517.031
727.543, 13373.688
728.025, 14426.543
728.507, 15669.422
728.989, 17063.676
729.471, 18549.902
729.953, 20201.852
730.435, 22061.953
730.918, 24134.527
731.400, 26409.590
731.882, 29002.766
732.364, 31665.102
732.846, 34329.496
733.328, 37036.016
733.810, 39539.047
734.292, 41963.363
734.775, 43888.613
735.257, 44990.848
735.739, 45270.117
736.221, 44743.648
736.703, 43386.188
737.185, 41407.227
737.667, 38791.668
738.149, 35761.602
738.631, 32600.453
739.114, 29254.082
739.596, 26048.875
740.078, 22997.426
740.560, 20178.375
741.042, 17703.328
741.524, 15619.863
742.006, 13767.250
742.489, 12116.738
742.971, 10683.723
743.453, 9531.090
743.935, 8653.367
744.417, 7964.102
744.899, 7446.617
745.381, 7092.676
745.863, 6917.375
746.345, 6901.555
746.828, 6989.531
747.310, 7089.375
747.792, 7337.238
748.274, 7827.516
748.756, 8533.273
749.238, 9342.176
749.720, 10250.727
750.202, 11245.254
750.684, 12319.676
751.167, 13470.555
751.649, 14803.098
752.131, 16321.434
752.613, 18053.922
753.095, 20778.828
753.577, 23504.871
754.059, 26232.203
754.541, 28959.086
755.023, 31686.949
755.506, 34415.426
755.988, 37144.156
756.470, 39873.824
756.952, 42604.797
757.434, 45335.293
757.916, 48066.938
758.398, 52255.230
758.880, 56812.895
759.362, 61696.809
759.845, 67132.125
760.327, 73159.844
760.809, 79768.008
761.291, 86920.250
761.773, 94723.797
762.255, 103261.703
762.737, 112639.359
763.219, 122247.977
763.702, 132484.656
764.184, 142171.375
764.666, 150092.266
765.148, 156839.125
765.630, 160389.719
766.112, 160088.844
766.594, 156607.203
767.076, 150218.594
767.558, 140285.891
768.041, 129409.336
768.523, 117587.562
769.005, 105549.125
769.487, 94197.914
769.969, 83536.555
770.451, 73822.734
770.933, 65056.734
771.416, 57262.125
771.898, 50430.895
772.380, 44530.906
772.862, 39441.188
773.344, 35182.168
773.826, 31693.078
774.308, 28996.125
774.790, 26998.734
775.272, 25536.512
775.755, 24632.070
776.237, 24235.660
776.719, 24372.789
777.201, 24974.008
777.683, 25880.219
778.165, 27099.281
778.647, 28706.219
779.129, 30642.598
779.612, 33069.617
780.094, 36125.125
780.576, 39774.438
781.058, 43873.945
781.540, 48303.062
782.022, 53231.438
782.504, 58688.199
782.986, 64670.441
783.468, 71155.531
783.951, 78029.312
784.433, 85616.164
784.915, 94080.945
785.397, 103373.727
785.879, 113358.469
786.361, 124131.742
786.843, 135735.422
787.325, 147854.188
787.807, 161268.453
788.290, 176535.375
788.772, 193853.812
789.254, 212260.969
789.736, 231352.781
790.218, 252199.297
790.700, 275195.594
791.182, 300573.344
791.664, 326846.781
792.146, 354626.562
792.629, 381565.250
793.111, 407491.688
793.593, 431052.719
794.075, 448797.500
794.557, 460617.500
795.039, 463817.656
795.521, 455541.656
796.003, 438695.125
796.485, 414312.594
796.968, 381403.719
797.450, 347709.438
797.932, 312658.094
798.414, 278673.094
798.896, 247175.766
799.378, 218176.172
799.860, 192651.141
800.343, 170766.953
800.825, 151784.609
801.307, 135155.297
801.789, 120709.477
802.271, 108027.273
802.753, 97168.867
803.235, 87619.883
803.717, 79375.266
804.199, 72115.461
804.682, 65619.164
805.164, 59996.500
805.646, 54893.508
806.128, 50407.262
806.610, 46309.656
807.092, 42403.777
807.574, 38691.789
808.056, 35328.254
808.539, 32363.266
809.021, 29676.477
809.503, 27181.000
809.985, 24888.109
810.467, 22825.234
810.949, 21023.031
811.431, 19353.328
811.913, 17803.359
812.395, 16361.773
812.878, 15014.977
813.360, 13729.602
813.842, 12614.773
814.324, 11702.262
814.806, 10896.883
815.288, 10075.484
815.770, 9251.113
816.252, 8528.793
816.734, 7921.621
817.217, 7375.258
817.699, 6784.336
818.181, 6244.883
818.663, 5903.461
819.145, 5960.059
819.627, 5838.613
820.109, 5271.664
820.591, 4583.164
821.073, 4048.211
821.556, 3677.969
822.038, 3405.863
822.520, 3247.586
823.002, 3128.109
823.484, 2955.328
823.966, 2752.707
824.448, 2566.328
824.930, 2406.379
825.413, 2267.199
825.895, 2154.957
826.377, 2057.684
826.859, 1963.070
827.341, 1881.262
827.823, 1779.824
828.305, 1636.410
828.787, 1499.660
829.269, 1446.160
829.752, 1473.738
830.234, 1412.766
830.716, 1227.539
831.198, 1022.746
831.680, 930.770
832.162, 888.891
832.644, 796.289
833.127, 602.117
833.609, 429.906
834.091, 339.695
834.573, 281.438
835.055, 199.754
835.537, 68.617
836.019, 9.457
836.501, 19.117
836.983, 2.516
837.466, 2.762
837.948, 7.387
838.430, 56.039
838.912, 156.645
839.394, 246.219
839.876, 276.398
840.358, 270.922
840.840, 251.566
841.322, 197.418
841.805, 182.059
842.287, 227.488
842.769, 291.973
843.251, 340.578
843.733, 373.223
844.215, 404.172
844.697, 439.781
845.179, 445.102
845.661, 336.137
846.144, 190.348
846.626, 132.809
847.108, 205.703
847.590, 285.688
848.072, 335.035
848.554, 362.820
849.036, 373.141
849.518, 350.070
850.000, 366.094
850.483, 436.609
850.965, 502.594
851.447, 480.496
851.929, 404.496
852.411, 399.941
852.893, 482.594
853.375, 574.191
853.857, 625.473
854.340, 649.461
854.822, 653.168
855.304, 631.137
855.786, 611.523
856.268, 609.117
856.750, 592.180
857.232, 518.883
857.714, 389.504
858.196, 367.949
858.679, 465.277
859.161, 545.680
859.643, 462.371
860.125, 311.754
860.607, 211.945
861.089, 177.969
861.571, 157.207
862.054, 149.594
862.536, 134.254
863.018, 98.465
863.500, 40.156
863.982, 10.844
864.464, 54.379
864.946, 93.320
865.428, 135.918
865.910, 174.062
866.393, 175.297
866.875, 144.578
867.357, 139.934
867.839, 246.848
868.321, 347.047
868.803, 349.402
869.285, 248.438
869.767, 209.938
870.250, 254.441
870.732, 321.207
871.214, 395.930
871.696, 469.883
872.178, 498.871
872.660, 486.809
873.142, 472.000
873.624, 456.898
874.106, 464.922
874.589, 539.926
875.071, 662.551
875.553, 740.449
876.035, 671.012
876.517, 656.465
876.999, 772.062
877.481, 965.820
877.963, 1042.445
878.445, 1000.133
878.928, 976.434
879.410, 1034.051
879.892, 1133.969
880.374, 1244.520
880.856, 1355.895
881.338, 1442.953
881.820, 1473.688
882.302, 1506.574
882.784, 1551.797
883.267, 1611.711
883.749, 1699.289
884.231, 1822.012
884.713, 1925.867
885.195, 1992.512
885.677, 2050.750
886.159, 2152.250
886.641, 2278.766
887.123, 2384.512
887.606, 2412.801
888.088, 2493.008
888.570, 2727.848
889.052, 3027.945
889.534, 3268.402
890.016, 3399.590
890.498, 3593.309
890.981, 3859.496
891.463, 4199.215
891.945, 4656.043
892.427, 5182.480
892.909, 5595.918
893.391, 5834.820
893.873, 6101.906
894.355, 6507.680
894.837, 7024.688
895.320, 7635.828
895.802, 8366.027
896.284, 9106.855
896.766, 9879.195
897.248, 10617.973
897.730, 11243.141
898.212, 11782.488
898.694, 12432.410
899.177, 13191.441
899.659, 14075.777
900.141, 15153.461
900.623, 16311.988
901.105, 17435.562
901.587, 18504.594
902.069, 19646.598
902.551, 20871.570
903.033, 22177.500
903.516, 23684.195
903.998, 25292.246
904.480, 26385.453
904.962, 26956.262
905.444, 27079.125
905.926, 26712.102
906.408, 25982.691
906.890, 24960.660
907.372, 23676.000
907.855, 22269.539
908.337, 20629.133
908.819, 19041.246
909.301, 17575.352
909.783, 16210.863
910.265, 14899.688
910.747, 13647.082
911.229, 12479.945
911.711, 11364.785
912.194, 10425.922
912.676, 9824.477
913.158, 9498.395
913.640, 9321.488
914.122, 9764.996
914.604, 9664.582
915.086, 8504.328
915.568, 6979.738
916.050, 5967.570
916.533, 5488.570
917.015, 5165.348
917.497, 4985.207
917.979, 4847.750
918.461, 4629.609
918.943, 4371.281
919.425, 4137.633
919.907, 3946.945
920.390, 3760.422
920.872, 3543.527
921.354, 3349.969
921.836, 3218.602
922.318, 3155.426
922.800, 3092.250
923.282, 3027.121
923.765, 2969.312
924.247, 2932.934
924.729, 2899.020
925.211, 2831.742
925.693, 2738.262
926.175, 2674.008
926.657, 2676.680
927.139, 2683.066
927.621, 2653.406
928.104, 2605.746
928.586, 2672.168
929.068, 2872.410
929.550, 3013.941
930.032, 3020.422
930.514, 2910.555
930.996, 2640.289
931.478, 2279.395
931.960, 2010.043
932.443, 1994.852
932.925, 1989.664
933.407, 1918.289
933.889, 1807.730
934.371, 1701.211
934.853, 1596.828
935.335, 1548.918
935.817, 1579.219
936.299, 1615.281
936.782, 1540.457
937.264, 1417.516
937.746, 1358.832
938.228, 1426.633
938.710, 1456.457
939.192, 1338.930
939.674, 1205.957
940.156, 1168.254
940.638, 1252.402
941.121, 1257.605
941.603, 1175.039
942.085, 1080.418
942.567, 1030.672
943.049, 1012.852
943.531, 1027.816
944.013, 1071.566
944.495, 1069.785
944.978, 917.020
945.460, 798.414
945.942, 809.387
946.424, 923.430
946.906, 935.336
947.388, 837.805
947.870, 753.539
948.352, 627.324
948.834, 662.125
949.317, 1455.180
949.799, 2605.738
950.281, 3181.891
950.763, 2340.527
951.245, 1540.305
951.727, 1024.699
952.209, 719.246
952.692, 527.211
953.174, 449.383
953.656, 440.641
954.138, 507.723
954.620, 573.219
955.102, 545.355
955.584, 470.004
956.066, 407.855
956.548, 379.121
957.031, 329.645
957.513, 216.176
957.995, 122.695
958.477, 112.969
958.959, 185.070
959.441, 214.598
959.923, 203.121
960.405, 205.281
960.888, 293.535
961.370, 386.488
961.852, 395.949
962.334, 336.383
962.816, 301.762
963.298, 317.590
963.780, 336.016
964.262, 351.652
964.744, 357.672
965.227, 320.184
965.709, 251.598
966.191, 239.766
966.673, 353.445
967.155, 449.922
967.637, 380.453
968.119, 244.199
968.601, 179.047
969.083, 262.957
969.566, 313.703
970.048, 329.398
970.530, 312.918
971.012, 236.336
971.494, 128.277
971.976, 108.406
972.458, 186.730
972.940, 254.164
973.422, 217.816
973.905, 164.047
974.387, 151.277
974.869, 181.344
975.351, 215.227
975.833, 248.387
976.315, 299.988
976.797, 394.559
977.279, 501.254
977.761, 542.754
978.244, 534.398
978.726, 529.355
979.208, 560.340
979.690, 585.801
980.172, 571.574
980.654, 550.844
981.136, 582.426
981.619, 684.809
982.101, 717.395
982.583, 652.676
983.065, 571.242
983.547, 561.301
984.029, 595.410
984.511, 630.594
984.993, 658.012
985.475, 715.562
985.958, 815.895
986.440, 955.438
986.922, 1168.867
987.404, 1440.855
987.886, 1535.461
988.368, 1452.230
988.850, 1308.387
989.332, 1127.477
989.815, 960.801
990.297, 855.996
990.779, 800.219
991.261, 764.609
991.743, 757.656
992.225, 760.094
992.707, 769.910
993.189, 771.543
993.671, 725.285
994.154, 655.527
994.636, 681.617
995.118, 851.477
995.600, 1002.898
996.082, 1003.602
996.564, 947.152
997.046, 912.906
997.528, 905.492
998.010, 926.645
998.493, 986.875
998.975, 1036.699
999.457, 1034.125
999.939, 1000.043
1000.421, 971.328
1000.903, 952.691
1001.385, 963.715
1001.867, 1091.414
1002.349, 1161.141
1002.832, 1075.926
1003.314, 904.605
1003.796, 772.242
1004.278, 680.129
1004.760, 632.871
1005.242, 641.988
1005.724, 655.699
1006.206, 597.816
1006.689, 516.250
1007.171, 486.590
1007.653, 557.438
1008.135, 544.414
1008.617, 363.371
1009.099, 197.836
1009.581, 175.500
1010.063, 272.809
1010.545, 334.973
1011.028, 361.953
1011.510, 354.137
1011.992, 280.180
1012.474, 203.754
1012.956, 167.020
1013.438, 160.887
1013.920, 152.820
1014.402, 137.379
1014.885, 127.926
1015.367, 122.238
1015.849, 129.273
1016.331, 211.875
1016.813, 313.441
1017.295, 288.426
1017.777, 69.699
1018.259, 103.875
1018.741, 86.785
1019.224, 34.281
1019.706, 47.973
1020.188, 127.008
1020.670, 150.789
1021.152, 117.828
1021.634, 70.352
1022.116, 15.375
1022.598, 26.008
1023.081, 7.281
1023.563, 43.215
1024.045, 38.559
1024.527, 104.695
1025.009, 183.590
1025.491, 128.590
1025.973, 63.570
1026.455, 261.688
1026.938, 615.117
1027.420, 725.547
1027.902, 498.445
1028.384, 248.984
1028.866, 145.602
1029.348, 113.801
1029.830, 113.777
1030.312, 144.102
1030.794, 157.367
1031.276, 153.289
1031.759, 136.703
1032.241, 99.637
1032.723, 63.949
1033.205, 79.781
1033.687, 122.648
1034.169, 129.801
1034.651, 10.512
1035.133, 44.504
1035.616, 5.289
1036.098, 101.496
1036.580, 186.996
1037.062, 255.676
1037.544, 261.219
1038.026, 191.664
1038.508, 141.406
1038.990, 200.777
1039.473, 286.820
1039.955, 342.234
1040.437, 363.230
1040.919, 349.035
1041.401, 284.773
1041.883, 251.477
1042.365, 290.449
1042.847, 366.344
1043.329, 472.449
1043.812, 560.195
1044.294, 522.098
1044.776, 174.781
1045.258, 58.695
1045.740, 48.926
1046.222, 33.082
1046.704, 31.020
1047.186, 47.344
1047.668, 64.102
1048.151, 15.152
1048.633, 13.578
1049.115, 90.070
1049.597, 191.121
1050.079, 183.086
1050.561, 74.965
1051.043, 34.613
1051.525, 159.754
1052.008, 227.551
1052.490, 199.629
1052.972, 147.109
1053.454, 191.441
1053.936, 288.715
1054.418, 353.703
1054.900, 348.738
1055.382, 361.707
1055.865, 430.414
1056.347, 505.750
1056.829, 566.395
1057.311, 609.523
1057.793, 612.934
1058.275, 577.594
1058.757, 522.828
1059.239, 415.625
1059.721, 337.992
1060.203, 387.566
1060.686, 501.988
1061.168, 528.293
1061.650, 432.012
1062.132, 368.734
1062.614, 364.328
1063.096, 376.000
1063.578, 355.133
1064.060, 315.570
1064.543, 264.660
1065.025, 203.391
1065.507, 195.207
1065.989, 324.855
1066.471, 414.867
1066.953, 390.641
1067.435, 294.145
1067.917, 271.602
1068.400, 314.543
1068.882, 372.504
1069.364, 435.344
1069.846, 491.406
1070.328, 494.285
1070.810, 512.207
1071.292, 634.402
1071.774, 911.805
1072.256, 1080.379
1072.739, 1127.332
1073.221, 1145.715
1073.703, 1182.387
1074.185, 1252.223
1074.667, 1392.918
1075.149, 1587.652
1075.631, 1762.285
1076.113, 1869.102
1076.596, 1998.984
1077.078, 2174.145
1077.560, 2373.863
1078.042, 2569.117
1078.524, 2766.246
1079.006, 2980.941
1079.488, 3214.977
1079.970, 3506.578
1080.453, 3856.691
1080.935, 4292.477
1081.417, 4791.559
1081.899, 5369.602
1082.381, 6206.086
1082.863, 7308.148
1083.345, 8482.117
1083.827, 9660.859
1084.309, 10842.750
1084.792, 12040.422
1085.274, 13239.477
1085.756, 14399.711
1086.238, 15770.883
1086.720, 16551.914
1087.202, 16705.031
1087.684, 16329.406
1088.166, 15341.305
1088.648, 13961.180
1089.131, 12473.594
1089.613, 10948.336
1090.095, 9640.086
1090.577, 8602.984
1091.059, 7875.023
1091.541, 7458.562
1092.023, 7358.359
1092.505, 7638.008
1092.988, 8239.914
1093.470, 8885.539
1093.952, 9510.969
1094.434, 10279.305
1094.916, 11395.305
1095.398, 12622.109
1095.880, 13839.414
1096.362, 15040.625
1096.844, 15933.203
1097.327, 16519.672
1097.809, 16616.000
1098.291, 16062.383
1098.773, 15063.023
1099.255, 13630.352
1099.737, 11969.156
1100.219, 10412.891
1100.701, 9075.773
1101.183, 7795.984
1101.666, 6541.508
1102.148, 5424.156
1102.630, 4539.117
1103.112, 3844.617
1103.594, 3293.188
1104.076, 2871.445
1104.558, 2514.750
1105.040, 2208.859
1105.523, 1946.812
1106.005, 1725.531
1106.487, 1545.656
1106.969, 1426.172
1107.451, 1352.578
1107.933, 1261.844
1108.415, 1143.984
1108.897, 1039.461
1109.380, 1003.969
1109.862, 958.547
1110.344, 831.602
1110.826, 639.781
1111.308, 539.562
1111.790, 536.586
1112.272, 526.414
1112.754, 463.703
1113.236, 388.016
1113.719, 318.953
1114.201, 269.406
1114.683, 258.773
1115.165, 305.828
1115.647, 350.719
1116.129, 397.219
1116.611, 430.273
1117.093, 434.383
1117.575, 418.625
1118.058, 405.125
1118.540, 386.664
1119.022, 337.281
1119.504, 191.594
1119.986, 101.367
1120.468, 111.047
1120.950, 143.406
1121.432, 85.070
1121.915, 31.977
1122.397, 110.648
1122.879, 140.219
1123.361, 118.984
1123.843, 10.758
1124.325, 118.398
1124.807, 268.164
1125.289, 405.453
1125.771, 391.352
1126.254, 243.070
1126.736, 166.484
1127.218, 228.430
1127.700, 319.703
1128.182, 368.977
1128.664, 395.969
1129.146, 406.461
1129.628, 397.141
1130.110, 442.672
1130.593, 547.227
1131.075, 632.242
1131.557, 631.945
1132.039, 618.742
1132.521, 698.719
1133.003, 813.055
1133.485, 859.305
1133.967, 797.328
1134.450, 716.086
1134.932, 608.258
1135.414, 521.141
1135.896, 515.984
1136.378, 547.961
1136.860, 537.195
1137.342, 493.219
1137.824, 461.383
1138.307, 480.734
1138.789, 478.992
1139.271, 440.703
1139.753, 389.297
1140.235, 338.898
1140.717, 302.398
1141.199, 322.891
1141.681, 407.219
1142.163, 488.539
1142.646, 578.523
1143.128, 615.727
1143.610, 560.523
1144.092, 447.305
1144.574, 370.484
1145.056, 326.523
1145.538, 288.578
1146.020, 250.883
1146.502, 210.727
1146.985, 174.250
1147.467, 135.492
1147.949, 95.242
1148.431, 54.586
1148.913, 30.617
1149.395, 155.156
1149.877, 207.578
1150.359, 93.578
1150.842, 49.844
1151.324, 105.914
1151.806, 128.883
1152.288, 196.094
1152.770, 334.883
1153.252, 397.719
1153.734, 376.789
1154.216, 326.172
1154.698, 228.344
1155.181, 165.992
1155.663, 269.242
1156.145, 479.211
1156.627, 621.156
1157.109, 685.766
1157.591, 670.484
1158.073, 558.688
1158.555, 438.102
1159.037, 405.062
1159.520, 420.602
1160.002, 435.352
1160.484, 445.891
1160.966, 461.484
1161.448, 499.297
1161.930, 506.875
1162.412, 465.461
1162.894, 401.656
1163.377, 351.203
1163.859, 310.422
1164.341, 280.789
1164.823, 267.781
1165.305, 226.570
1165.787, 105.945
1166.269, 18.258
1166.751, 20.656
1167.234, 76.469
1167.716, 96.953
1168.198, 89.055
1168.680, 62.984
1169.162, 22.961
1169.644, 15.008
1170.126, 55.219
1170.608, 80.766
1171.090, 88.586
1171.573, 76.984
1172.055, 12.109
1172.537, 93.078
1173.019, 188.117
1173.501, 236.312
1173.983, 277.844
1174.465, 336.172
1174.947, 385.430
1175.430, 400.570
1175.912, 382.031
1176.394, 360.672
1176.876, 338.453
1177.358, 330.703
1177.840, 351.414
1178.322, 388.016
1178.804, 447.375
1179.286, 514.719
1179.769, 579.570
1180.251, 639.672
1180.733, 617.680
1181.215, 507.133
1181.697, 428.102
1182.179, 495.680
1182.661, 588.281
1183.143, 613.914
1183.625, 594.320
1184.108, 596.992
1184.590, 621.281
1185.072, 702.945
1185.554, 863.094
1186.036, 981.516
1186.518, 931.594
1187.000, 810.641
1187.482, 682.711
1187.965, 558.570
1188.447, 496.930
1188.929, 506.250
1189.411, 489.281
1189.893, 404.227
1190.375, 326.445
1190.857, 384.102
1191.339, 464.086
1191.822, 415.664
1192.304, 210.703
1192.786, 118.375
1193.268, 151.516
1193.750, 208.242
1194.232, 260.766
1194.714, 286.680
1195.196, 241.375
1195.678, 158.055
1196.161, 78.188
1196.643, 9.523
1197.125, 20.492
1197.607, 61.227
1198.089, 118.422
1198.571, 16.039
1199.053, 96.945
1199.535, 1.102
1200.017, 220.633
1200.500, 389.414
1200.982, 517.836
1201.464, 491.445
1201.946, 275.305
1202.428, 60.383
1202.910, 11.336
1203.392, 47.695
1203.874, 93.289
1204.357, 138.109
1204.839, 162.109
1205.321, 157.562
1205.803, 151.383
1206.285, 136.023
1206.767, 120.852
1207.249, 112.938
1207.731, 125.656
1208.214, 198.672
1208.696, 320.266
1209.178, 393.453
1209.660, 390.492
1210.142, 394.133
1210.624, 406.305
1211.106, 433.594
1211.588, 505.883
1212.070, 580.062
1212.552, 582.141
1213.035, 510.211
1213.517, 472.008
1213.999, 492.875
1214.481, 508.648
1214.963, 505.828
1215.445, 486.531
1215.927, 445.062
1216.409, 391.570
1216.892, 342.484
1217.374, 301.742
1217.856, 256.492
1218.338, 207.719
1218.820, 154.781
1219.302, 93.672
1219.784, 39.398
1220.266, 13.609
1220.749, 11.164
1221.231, 26.820
1221.713, 68.523
1222.195, 87.984
1222.677, 66.812
1223.159, 80.234
1223.641, 193.688
1224.123, 309.055
1224.605, 215.344
1225.088, 39.203
1225.570, 11.203
1226.052, 168.328
1226.534, 304.305
1227.016, 399.773
1227.498, 424.547
1227.980, 311.625
1228.462, 171.805
1228.944, 189.867
1229.427, 298.000
1229.909, 373.570
1230.391, 373.750
1230.873, 380.781
1231.355, 394.328
1231.837, 414.367
1232.319, 456.914
1232.801, 493.625
1233.284, 471.461
1233.766, 416.375
1234.248, 387.430
1234.730, 403.820
1235.212, 414.461
1235.694, 415.477
1236.176, 416.055
1236.658, 401.461
1237.141, 406.898
1237.623, 517.312
1238.105, 674.000
1238.587, 701.383
1239.069, 526.883
1239.551, 469.680
1240.033, 564.156
1240.515, 679.820
1240.997, 739.617
1241.479, 739.938
1241.962, 633.922
1242.444, 470.352
1242.926, 415.617
1243.408, 505.352
1243.890, 542.289
1244.372, 495.961
1244.854, 457.406
1245.336, 478.586
1245.819, 573.609
1246.301, 845.961
1246.783, 1188.945
1247.265, 1267.477
1247.747, 1017.680
1248.229, 819.109
1248.711, 714.359
1249.193, 665.953
1249.676, 674.672
1250.158, 702.164
1250.640, 723.750
1251.122, 728.984
1251.604, 671.180
1252.086, 552.484
1252.568, 541.250
1253.050, 687.328
1253.532, 769.328
1254.015, 483.359
1254.497, 200.250
1254.979, 211.016
1255.461, 419.164
1255.943, 527.938
1256.425, 540.414
1256.907, 514.430
1257.389, 449.688
1257.871, 410.164
1258.354, 486.648
1258.836, 539.102
1259.318, 461.320
1259.800, 309.711
1260.282, 332.867
1260.764, 479.742
1261.246, 526.164
1261.728, 429.031
1262.211, 286.508
1262.693, 76.656
1263.175, 68.250
1263.657, 85.133
1264.139, 2.453
1264.621, 195.484
1265.103, 426.117
1265.585, 464.008
1266.068, 203.109
1266.550, 26.602
1267.032, 151.422
1267.514, 156.125
1267.996, 7.734
1268.478, 255.234
1268.960, 348.070
1269.442, 340.867
1269.924, 370.453
1270.407, 489.656
1270.889, 563.281
1271.371, 534.742
1271.853, 543.492
1272.335, 675.961
1272.817, 850.180
1273.299, 908.516
1273.781, 890.758
1274.264, 872.711
1274.746, 869.172
1275.228, 872.984
1275.710, 889.055
1276.192, 883.320
1276.674, 814.469
1277.156, 733.742
1277.638, 720.664
1278.120, 745.039
1278.603, 765.391
1279.085, 784.492
1279.567, 783.148
1280.049, 718.945
1280.531, 672.766
1281.013, 586.750
1281.495, 482.664
1281.977, 368.094
1282.459, 375.859
1282.942, 379.430
1283.424, 362.500
1283.906, 319.477
1284.388, 249.336
1284.870, 199.562
1285.352, 199.164
1285.834, 215.289
1286.316, 211.047
1286.799, 223.953
1287.281, 311.961
1287.763, 468.578
1288.245, 501.656
1288.727, 428.062
1289.209, 357.680
1289.691, 336.141
1290.173, 336.906
1290.656, 364.797
1291.138, 404.219
1291.620, 473.820
1292.102, 549.461
1292.584, 431.219
1293.066, 173.133
1293.548, 14.766
1294.030, 245.625
1294.512, 343.844
1294.995, 174.242
1295.477, 2.148
1295.959, 0.000
##END=



