##NAMES=Tschernichite
##RRUFFID=R060482
##IDEAL CHEMISTRY=CaAl_2_Si_6_O_16_&#183;8H_2_O
##LOCALITY=Neer Road Pit, Goble, Columbia County, Oregon, USA
##OWNER=RRUFF
##SOURCE=Michael Scott
##DESCRIPTION=Colorless steep dipyramidal tetragonal crystals
##STATUS=The identification of this mineral has been confirmed by single-crystal X-ray diffraction.
##URL=rruff.info/R060482
212.160, 0.000
212.642, 0.650
213.124, 0.812
213.606, 2.631
214.088, 17.813
214.570, 50.959
215.052, 73.177
215.535, 77.504
216.017, 66.534
216.499, 56.683
216.981, 45.675
217.463, 39.208
217.945, 41.853
218.427, 51.390
218.909, 66.029
219.391, 85.672
219.874, 82.660
220.356, 97.303
220.838, 106.436
221.320, 112.218
221.802, 98.856
222.284, 107.596
222.766, 106.507
223.248, 104.681
223.731, 110.842
224.213, 152.651
224.695, 199.760
225.177, 236.780
225.659, 243.438
226.141, 199.726
226.623, 166.295
227.105, 162.993
227.587, 188.433
228.070, 218.559
228.552, 262.160
229.034, 302.418
229.516, 313.286
229.998, 268.849
230.480, 241.599
230.962, 258.112
231.444, 332.731
231.926, 372.312
232.409, 361.882
232.891, 330.799
233.373, 325.070
233.855, 369.658
234.337, 398.525
234.819, 390.418
235.301, 379.996
235.783, 415.816
236.266, 440.411
236.748, 454.383
237.230, 425.918
237.712, 451.508
238.194, 512.743
238.676, 521.131
239.158, 505.468
239.640, 524.531
240.122, 535.166
240.605, 537.823
241.087, 508.612
241.569, 520.552
242.051, 516.001
242.533, 510.773
243.015, 519.425
243.497, 513.987
243.980, 483.640
244.462, 480.921
244.944, 464.057
245.426, 446.797
245.908, 446.604
246.390, 415.211
246.872, 414.900
247.354, 402.272
247.836, 395.367
248.318, 376.240
248.801, 360.935
249.283, 347.542
249.765, 346.955
250.247, 329.425
250.729, 292.979
251.211, 310.200
251.693, 314.397
252.176, 306.265
252.658, 248.885
253.140, 255.077
253.622, 235.766
254.104, 215.387
254.586, 230.455
255.068, 180.105
255.550, 194.524
256.032, 183.018
256.514, 183.296
256.997, 157.878
257.479, 140.327
257.961, 148.365
258.443, 142.151
258.925, 113.566
259.407, 114.277
259.889, 62.508
260.371, 60.956
260.854, 50.488
261.336, 46.638
261.818, 23.595
262.300, 30.309
262.782, 66.835
263.264, 80.540
263.746, 75.675
264.228, 62.493
264.711, 32.033
265.193, 11.899
265.675, 25.426
266.157, 88.754
266.639, 123.271
267.121, 113.587
267.603, 74.105
268.085, 53.834
268.567, 63.332
269.050, 89.984
269.532, 60.749
270.014, 36.714
270.496, 25.624
270.978, 66.021
271.460, 40.171
271.942, 41.029
272.424, 43.100
272.906, 8.277
273.389, 41.795
273.871, 7.811
274.353, 0.947
274.835, 18.148
275.317, 10.363
275.799, 10.712
276.281, 15.066
276.763, 35.833
277.246, 92.852
277.728, 190.958
278.210, 249.804
278.692, 248.938
279.174, 214.097
279.656, 211.629
280.138, 245.273
280.620, 289.171
281.103, 329.416
281.585, 365.958
282.067, 398.795
282.549, 427.039
283.031, 452.165
283.513, 477.194
283.995, 501.898
284.477, 528.630
284.959, 559.862
285.441, 595.429
285.924, 631.454
286.406, 667.988
286.888, 704.428
287.370, 737.387
287.852, 766.973
288.334, 799.960
288.816, 845.901
289.298, 901.063
289.781, 945.847
290.263, 977.558
290.745, 999.831
291.227, 1011.995
291.709, 1015.358
292.191, 1027.824
292.673, 1068.272
293.155, 1127.506
293.638, 1173.221
294.120, 1199.348
294.602, 1218.744
295.084, 1252.327
295.566, 1297.346
296.048, 1336.433
296.530, 1356.663
297.012, 1364.635
297.494, 1363.803
297.977, 1390.482
298.459, 1410.452
298.941, 1423.994
299.423, 1411.742
299.905, 1432.075
300.387, 1439.296
300.869, 1445.959
301.351, 1470.859
301.833, 1462.017
302.316, 1486.551
302.798, 1497.746
303.280, 1514.979
303.762, 1519.114
304.244, 1527.148
304.726, 1548.463
305.208, 1562.458
305.690, 1565.000
306.172, 1582.568
306.655, 1573.126
307.137, 1587.330
307.619, 1611.828
308.101, 1614.927
308.583, 1620.477
309.065, 1606.945
309.547, 1608.302
310.030, 1606.901
310.512, 1578.680
310.994, 1542.820
311.476, 1525.945
311.958, 1495.283
312.440, 1504.900
312.922, 1504.057
313.404, 1494.509
313.886, 1448.277
314.369, 1449.478
314.851, 1431.366
315.333, 1412.215
315.815, 1419.817
316.297, 1378.847
316.779, 1385.475
317.261, 1373.084
317.743, 1367.909
318.225, 1343.828
318.708, 1325.417
319.190, 1326.121
319.672, 1315.381
320.154, 1285.037
320.636, 1274.451
321.118, 1224.266
321.600, 1208.823
322.082, 1209.202
322.565, 1180.894
323.047, 1175.293
323.529, 1161.011
324.011, 1106.301
324.493, 1113.499
324.975, 1076.531
325.457, 1037.512
325.939, 1018.366
326.422, 976.251
326.904, 975.846
327.386, 967.087
327.868, 950.054
328.350, 894.274
328.832, 887.161
329.314, 861.322
329.796, 834.713
330.278, 836.604
330.760, 788.288
331.243, 790.067
331.725, 773.326
332.207, 766.667
332.689, 740.630
333.171, 720.682
333.653, 721.505
334.135, 711.296
334.617, 683.930
335.100, 680.378
335.582, 634.742
336.064, 626.102
336.546, 614.953
337.028, 610.130
337.510, 593.814
337.992, 531.482
338.474, 528.664
338.957, 502.052
339.439, 474.505
339.921, 480.185
340.403, 424.756
340.885, 429.994
341.367, 411.080
341.849, 403.285
342.331, 371.558
342.813, 347.284
343.296, 347.045
343.778, 333.576
344.260, 299.284
344.742, 267.341
345.224, 230.791
345.706, 204.494
346.188, 195.705
346.670, 197.622
347.152, 191.726
347.635, 178.003
348.117, 160.607
348.599, 142.929
349.081, 124.221
349.563, 100.533
350.045, 64.053
350.527, 30.634
351.009, 19.203
351.491, 29.647
351.974, 34.859
352.456, 35.124
352.938, 15.435
353.420, 21.659
353.902, 17.591
354.384, 13.165
354.866, 23.228
355.349, 16.399
355.831, 19.549
356.313, 20.342
356.795, 43.971
357.277, 62.146
357.759, 75.169
358.241, 67.378
358.723, 86.270
359.205, 89.840
359.688, 105.035
360.170, 114.989
360.652, 130.354
361.134, 144.503
361.616, 157.503
362.098, 165.688
362.580, 180.188
363.062, 184.331
363.544, 192.434
364.027, 201.541
364.509, 216.584
364.991, 241.895
365.473, 277.565
365.955, 264.557
366.437, 300.163
366.919, 324.070
367.401, 336.910
367.884, 305.297
368.366, 331.277
368.848, 334.296
369.330, 336.455
369.812, 370.785
370.294, 346.073
370.776, 380.072
371.258, 390.766
371.741, 412.259
372.223, 410.652
372.705, 416.301
373.187, 445.249
373.669, 461.460
374.151, 445.807
374.633, 433.974
375.115, 430.182
375.597, 436.786
376.079, 437.295
376.562, 430.165
377.044, 418.798
377.526, 400.265
378.008, 368.648
378.490, 369.027
378.972, 337.527
379.454, 354.716
379.936, 360.256
380.419, 354.775
380.901, 304.870
381.383, 312.623
381.865, 297.465
382.347, 281.517
382.829, 297.822
383.311, 255.136
383.793, 271.240
384.276, 264.084
384.758, 267.792
385.240, 248.443
385.722, 236.386
386.204, 247.665
386.686, 246.240
387.168, 224.760
387.650, 229.962
388.132, 187.857
388.615, 187.485
389.097, 205.197
389.579, 185.490
390.061, 170.765
390.543, 154.557
391.025, 158.969
391.507, 138.958
391.989, 107.069
392.471, 83.462
392.954, 75.015
393.436, 61.911
393.918, 81.541
394.400, 93.324
394.882, 97.687
395.364, 72.167
395.846, 85.424
396.328, 86.830
396.810, 81.282
397.293, 91.653
397.775, 91.850
398.257, 124.714
398.739, 149.744
399.221, 167.364
399.703, 155.154
400.185, 181.115
400.668, 180.522
401.150, 210.175
401.632, 232.579
402.114, 248.126
402.596, 236.065
403.078, 259.826
403.560, 269.335
404.042, 278.330
404.524, 307.345
405.007, 299.679
405.489, 326.567
405.971, 388.522
406.453, 428.354
406.935, 441.520
407.417, 467.621
407.899, 525.473
408.381, 605.027
408.863, 653.917
409.346, 668.092
409.828, 683.364
410.310, 741.622
410.792, 832.664
411.274, 900.618
411.756, 924.464
412.238, 936.250
412.720, 995.835
413.203, 1093.660
413.685, 1177.651
414.167, 1190.317
414.649, 1176.855
415.131, 1208.375
415.613, 1300.417
416.095, 1402.895
416.577, 1475.007
417.060, 1529.143
417.542, 1589.208
418.024, 1681.170
418.506, 1770.030
418.988, 1824.325
419.470, 1844.029
419.952, 1872.347
420.434, 1928.591
420.916, 2000.804
421.398, 2079.448
421.881, 2188.384
422.363, 2274.863
422.845, 2309.504
423.327, 2306.073
423.809, 2326.291
424.291, 2395.684
424.773, 2475.424
425.255, 2549.326
425.738, 2615.856
426.220, 2680.255
426.702, 2744.688
427.184, 2804.677
427.666, 2852.606
428.148, 2881.822
428.630, 2914.010
429.112, 2956.704
429.595, 3010.448
430.077, 3051.097
430.559, 3077.601
431.041, 3097.258
431.523, 3115.402
432.005, 3131.181
432.487, 3146.308
432.969, 3160.014
433.451, 3174.010
433.934, 3191.260
434.416, 3213.036
434.898, 3240.370
435.380, 3278.133
435.862, 3320.933
436.344, 3356.196
436.826, 3383.384
437.308, 3400.508
437.790, 3398.438
438.273, 3384.449
438.755, 3376.130
439.237, 3379.949
439.719, 3393.891
440.201, 3424.111
440.683, 3469.805
441.165, 3505.926
441.647, 3505.034
442.129, 3491.208
442.612, 3489.170
443.094, 3512.786
443.576, 3540.915
444.058, 3575.821
444.540, 3611.246
445.022, 3628.336
445.504, 3602.435
445.987, 3573.623
446.469, 3561.309
446.951, 3577.970
447.433, 3583.418
447.915, 3563.602
448.397, 3538.734
448.879, 3537.698
449.361, 3593.015
449.843, 3616.412
450.326, 3577.869
450.808, 3483.019
451.290, 3407.416
451.772, 3334.143
452.254, 3299.492
452.736, 3265.196
453.218, 3231.099
453.700, 3196.602
454.182, 3161.615
454.665, 3126.577
455.147, 3091.704
455.629, 3057.097
456.111, 3022.053
456.593, 2986.913
457.075, 2951.729
457.557, 2916.726
458.039, 2881.612
458.522, 2846.502
459.004, 2811.395
459.486, 2776.225
459.968, 2741.057
460.450, 2705.887
460.932, 2670.726
461.414, 2635.681
461.896, 2600.672
462.379, 2565.570
462.861, 2407.497
463.343, 2283.257
463.825, 2178.268
464.307, 2094.558
464.789, 2021.141
465.271, 1961.466
465.753, 1907.878
466.235, 1848.657
466.717, 1785.529
467.200, 1713.799
467.682, 1628.024
468.164, 1528.090
468.646, 1439.238
469.128, 1363.267
469.610, 1295.081
470.092, 1231.892
470.574, 1175.320
471.057, 1118.472
471.539, 1061.085
472.021, 1002.523
472.503, 938.978
472.985, 869.766
473.467, 801.833
473.949, 738.917
474.431, 679.950
474.914, 619.845
475.396, 558.033
475.878, 497.401
476.360, 435.885
476.842, 377.441
477.324, 333.506
477.806, 306.183
478.288, 260.204
478.770, 260.257
479.253, 249.166
479.735, 227.412
480.217, 163.426
480.699, 153.844
481.181, 122.445
481.663, 90.146
482.145, 88.181
482.627, 30.243
483.109, 27.765
483.592, 0.919
484.074, 9.035
484.556, 23.005
485.038, 18.312
485.520, 3.283
486.002, 14.975
486.484, 3.678
486.966, 5.867
487.448, 0.422
487.931, 31.401
488.413, 50.154
488.895, 53.244
489.377, 46.029
489.859, 32.778
490.341, 9.263
490.823, 0.227
491.306, 17.791
491.788, 55.289
492.270, 72.847
492.752, 69.881
493.234, 57.984
493.716, 40.280
494.198, 20.399
494.680, 11.926
495.162, 19.310
495.645, 30.729
496.127, 30.987
496.609, 25.196
497.091, 26.764
497.573, 54.957
498.055, 83.879
498.537, 89.828
499.019, 72.852
499.501, 55.829
499.984, 46.039
500.466, 41.873
500.948, 41.970
501.430, 55.538
501.912, 60.075
502.394, 43.691
502.876, 15.735
503.358, 2.077
503.841, 0.441
504.323, 0.485
504.805, 8.751
505.287, 27.703
505.769, 44.576
506.251, 59.006
506.733, 71.965
507.215, 83.799
507.698, 94.254
508.180, 106.165
508.662, 121.774
509.144, 136.337
509.626, 135.325
510.108, 120.345
510.590, 114.099
511.072, 136.309
511.554, 172.050
512.036, 183.778
512.519, 170.664
513.001, 154.391
513.483, 198.541
513.965, 227.802
514.447, 243.031
514.929, 202.843
515.411, 234.605
515.893, 237.846
516.375, 239.468
516.858, 264.988
517.340, 270.731
517.822, 275.719
518.304, 268.459
518.786, 243.134
519.268, 237.108
519.750, 263.656
520.232, 298.687
520.715, 323.533
521.197, 331.875
521.679, 346.592
522.161, 375.873
522.643, 409.321
523.125, 419.714
523.607, 403.281
524.089, 385.350
524.571, 375.532
525.054, 373.544
525.536, 382.030
526.018, 402.113
526.500, 418.538
526.982, 409.716
527.464, 387.077
527.946, 380.154
528.429, 403.617
528.911, 427.054
529.393, 413.265
529.875, 376.708
530.357, 351.357
530.839, 361.005
531.321, 378.820
531.803, 391.248
532.286, 397.320
532.768, 400.485
533.250, 401.998
533.732, 400.903
534.214, 396.450
534.696, 390.204
535.178, 378.183
535.660, 351.912
536.142, 322.880
536.625, 315.828
537.107, 340.742
537.589, 363.032
538.071, 371.824
538.553, 368.972
539.035, 368.594
539.517, 369.160
539.999, 369.936
540.481, 367.541
540.964, 363.378
541.446, 363.990
541.928, 372.903
542.410, 380.357
542.892, 371.063
543.374, 351.113
543.856, 335.743
544.338, 340.280
544.820, 347.255
545.303, 340.329
545.785, 320.454
546.267, 305.009
546.749, 311.981
547.231, 319.916
547.713, 314.939
548.195, 288.221
548.677, 266.553
549.159, 249.266
549.642, 235.865
550.124, 229.269
550.606, 236.979
551.088, 240.902
551.570, 238.320
552.052, 229.983
552.534, 206.148
553.016, 182.111
553.499, 210.126
553.981, 225.097
554.463, 228.095
554.945, 182.233
555.427, 197.178
555.909, 184.996
556.391, 171.245
556.873, 193.410
557.356, 151.976
557.838, 174.959
558.320, 172.523
558.802, 181.620
559.284, 164.420
559.766, 153.943
560.248, 137.738
560.730, 136.277
561.213, 121.717
561.695, 89.265
562.177, 67.656
562.659, 69.074
563.141, 77.657
563.623, 83.617
564.105, 84.964
564.587, 87.221
565.069, 91.156
565.552, 95.182
566.034, 97.435
566.516, 98.332
566.998, 93.513
567.480, 76.661
567.962, 54.500
568.444, 53.092
568.926, 72.248
569.408, 90.546
569.891, 88.273
570.373, 76.381
570.855, 74.639
571.337, 88.159
571.819, 97.642
572.301, 80.939
572.783, 54.866
573.265, 40.940
573.747, 60.863
574.230, 76.853
574.712, 72.941
575.194, 55.520
575.676, 47.592
576.158, 41.907
576.640, 20.911
577.122, 49.956
577.604, 66.889
578.086, 72.331
578.569, 31.729
579.051, 50.487
579.533, 45.397
580.015, 52.052
580.497, 55.058
580.979, 65.134
581.461, 76.322
581.943, 76.751
582.426, 69.981
582.908, 69.205
583.390, 87.960
583.872, 109.466
584.354, 115.639
584.836, 108.248
585.318, 95.687
585.800, 76.022
586.282, 57.061
586.765, 44.258
587.247, 39.159
587.729, 36.407
588.211, 33.821
588.693, 33.902
589.175, 39.639
589.657, 59.533
590.140, 68.952
590.622, 63.183
591.104, 47.208
591.586, 30.670
592.068, 12.197
592.550, 1.655
593.032, 8.042
593.514, 24.559
593.996, 25.707
594.479, 11.822
594.961, 5.976
595.443, 30.380
595.925, 49.787
596.407, 40.790
596.889, 5.580
597.371, 51.596
597.853, 75.858
598.335, 84.406
598.818, 84.734
599.300, 65.941
599.782, 53.678
600.264, 63.035
600.746, 85.182
601.228, 88.392
601.710, 55.329
602.192, 27.929
602.674, 22.565
603.157, 39.401
603.639, 42.017
604.121, 25.971
604.603, 11.526
605.085, 20.755
605.567, 48.815
606.049, 59.023
606.531, 42.918
607.013, 28.253
607.496, 58.971
607.978, 114.691
608.460, 151.026
608.942, 134.690
609.424, 112.243
609.906, 118.642
610.388, 144.251
610.870, 159.904
611.353, 150.192
611.835, 134.988
612.317, 120.871
612.799, 107.644
613.281, 98.033
613.763, 90.657
614.245, 88.019
614.727, 93.157
615.209, 107.427
615.692, 122.029
616.174, 138.406
616.656, 149.602
617.138, 136.643
617.620, 104.995
618.102, 92.240
618.584, 120.980
619.067, 159.432
619.549, 157.189
620.031, 126.092
620.513, 105.156
620.995, 129.156
621.477, 158.529
621.959, 163.107
622.441, 140.916
622.923, 126.088
623.406, 133.792
623.888, 147.210
624.370, 155.625
624.852, 152.943
625.334, 159.396
625.816, 179.890
626.298, 203.956
626.780, 218.283
627.263, 221.992
627.745, 222.436
628.227, 219.979
628.709, 216.753
629.191, 218.605
629.673, 224.141
630.155, 226.016
630.637, 209.840
631.119, 194.611
631.602, 208.716
632.084, 248.397
632.566, 279.212
633.048, 276.478
633.530, 263.597
634.012, 253.212
634.494, 242.883
634.976, 247.752
635.458, 283.397
635.941, 323.521
636.423, 342.895
636.905, 332.133
637.387, 330.714
637.869, 345.382
638.351, 368.129
638.833, 384.816
639.315, 395.373
639.797, 400.309
640.280, 393.192
640.762, 383.602
641.244, 393.718
641.726, 419.517
642.208, 440.344
642.690, 439.702
643.172, 431.276
643.654, 424.700
644.137, 421.021
644.619, 418.524
645.101, 412.523
645.583, 410.493
646.065, 418.928
646.547, 450.065
647.029, 469.437
647.511, 470.551
647.994, 464.310
648.476, 464.783
648.958, 472.180
649.440, 486.438
649.922, 511.853
650.404, 535.560
650.886, 525.113
651.368, 488.057
651.851, 460.740
652.333, 476.115
652.815, 499.587
653.297, 489.850
653.779, 451.382
654.261, 422.651
654.743, 428.593
655.225, 445.827
655.707, 461.594
656.190, 473.708
656.672, 483.185
657.154, 487.749
657.636, 492.577
658.118, 506.383
658.600, 537.435
659.082, 538.659
659.564, 500.615
660.046, 442.412
660.529, 385.925
661.011, 431.552
661.493, 452.931
661.975, 450.895
662.457, 355.366
662.939, 379.428
663.421, 355.043
663.903, 328.744
664.385, 369.453
664.868, 286.540
665.350, 326.273
665.832, 317.108
666.314, 330.328
666.796, 295.093
667.278, 274.834
667.760, 303.062
668.242, 304.456
668.724, 263.671
669.207, 278.358
669.689, 193.951
670.171, 196.516
670.653, 236.611
671.135, 181.635
671.617, 162.275
672.099, 152.074
672.581, 170.236
673.064, 201.550
673.546, 214.814
674.028, 181.407
674.510, 147.734
674.992, 138.779
675.474, 148.233
675.956, 159.374
676.438, 182.304
676.920, 191.523
677.403, 175.494
677.885, 137.558
678.367, 109.845
678.849, 93.098
679.331, 83.845
679.813, 79.318
680.295, 80.014
680.778, 93.596
681.260, 121.062
681.742, 147.895
682.224, 158.859
682.706, 162.198
683.188, 173.777
683.670, 200.525
684.152, 216.943
684.634, 202.550
685.117, 172.657
685.599, 144.417
686.081, 105.062
686.563, 90.052
687.045, 122.483
687.527, 171.519
688.009, 176.930
688.491, 124.929
688.973, 76.728
689.456, 45.005
689.938, 29.910
690.420, 38.104
690.902, 67.192
691.384, 95.518
691.866, 114.274
692.348, 123.312
692.830, 117.831
693.312, 99.624
693.795, 84.440
694.277, 83.315
694.759, 85.328
695.241, 85.937
695.723, 87.146
696.205, 73.779
696.687, 23.112
697.169, 19.007
697.652, 13.715
698.134, 51.000
698.616, 90.829
699.098, 61.027
699.580, 89.995
700.062, 104.708
700.544, 105.929
701.026, 53.238
701.508, 70.185
701.991, 59.238
702.473, 47.154
702.955, 73.931
703.437, 55.026
703.919, 2.992
704.401, 22.117
704.883, 8.478
705.365, 30.452
705.847, 40.928
706.330, 4.261
706.812, 28.449
707.294, 40.139
707.776, 33.913
708.258, 32.260
708.740, 35.758
709.222, 35.131
709.705, 19.027
710.187, 3.966
710.669, 17.991
711.151, 22.448
711.633, 18.824
712.115, 2.747
712.597, 25.056
713.079, 32.339
713.561, 17.093
714.044, 3.606
714.526, 3.164
715.008, 6.893
715.490, 10.790
715.972, 16.578
716.454, 16.667
716.936, 9.535
717.418, 1.568
717.901, 14.887
718.383, 29.179
718.865, 36.862
719.347, 35.464
719.829, 27.282
720.311, 11.139
720.793, 9.557
721.275, 27.280
721.757, 41.140
722.240, 49.247
722.722, 42.990
723.204, 28.411
723.686, 32.319
724.168, 7.146
724.650, 45.330
725.132, 68.155
725.614, 76.443
726.096, 26.613
726.579, 51.852
727.061, 47.022
727.543, 40.975
728.025, 76.820
728.507, 35.502
728.989, 70.701
729.471, 75.372
729.953, 94.035
730.435, 82.442
730.918, 80.208
731.400, 108.258
731.882, 119.553
732.364, 104.510
732.846, 124.115
733.328, 81.847
733.810, 98.933
734.292, 75.009
734.775, 105.125
735.257, 146.331
735.739, 137.490
736.221, 92.166
736.703, 72.241
737.185, 96.524
737.667, 129.080
738.149, 130.442
738.631, 117.840
739.114, 118.271
739.596, 164.616
740.078, 198.000
740.560, 194.484
741.042, 168.527
741.524, 150.350
742.006, 138.716
742.489, 139.464
742.971, 159.737
743.453, 189.368
743.935, 194.711
744.417, 176.985
744.899, 166.196
745.381, 139.906
745.863, 178.801
746.345, 201.882
746.828, 210.000
747.310, 158.317
747.792, 183.873
748.274, 178.486
748.756, 171.837
749.238, 208.289
749.720, 165.345
750.202, 201.129
750.684, 205.498
751.167, 224.257
751.649, 211.881
752.131, 209.130
752.613, 237.540
753.095, 248.707
753.577, 232.776
754.059, 252.494
754.541, 208.537
755.023, 219.843
755.506, 255.461
755.988, 241.133
756.470, 261.458
756.952, 268.597
757.434, 215.782
757.916, 267.261
758.398, 273.650
758.880, 233.739
759.362, 281.670
759.845, 248.157
760.327, 257.129
760.809, 262.989
761.291, 273.645
761.773, 284.600
762.255, 294.703
762.737, 304.786
763.219, 315.309
763.702, 323.759
764.184, 324.140
764.666, 321.908
765.148, 326.784
765.630, 357.411
766.112, 375.391
766.594, 370.346
767.076, 353.633
767.558, 343.611
768.041, 339.105
768.523, 349.754
769.005, 384.447
769.487, 426.491
769.969, 438.165
770.451, 427.084
770.933, 424.144
771.416, 453.150
771.898, 488.126
772.380, 511.655
772.862, 526.128
773.344, 539.531
773.826, 551.913
774.308, 567.867
774.790, 589.127
775.272, 611.422
775.755, 618.379
776.237, 607.309
776.719, 597.124
777.201, 593.174
777.683, 598.526
778.165, 629.357
778.647, 680.562
779.129, 720.525
779.612, 720.923
780.094, 709.937
780.576, 704.689
781.058, 706.401
781.540, 717.142
782.022, 739.458
782.504, 771.343
782.986, 814.958
783.468, 870.443
783.951, 894.489
784.433, 881.983
784.915, 871.475
785.397, 889.249
785.879, 927.851
786.361, 976.089
786.843, 960.271
787.325, 1023.913
787.807, 1067.587
788.290, 1092.622
788.772, 1045.162
789.254, 1091.159
789.736, 1099.716
790.218, 1106.850
790.700, 1167.634
791.182, 1132.317
791.664, 1190.995
792.146, 1211.419
792.629, 1249.154
793.111, 1241.419
793.593, 1261.563
794.075, 1303.102
794.557, 1337.449
795.039, 1361.669
795.521, 1368.178
796.003, 1365.133
796.485, 1362.240
796.968, 1360.870
797.450, 1357.978
797.932, 1355.344
798.414, 1352.365
798.896, 1353.683
799.378, 1331.277
799.860, 1284.032
800.343, 1248.736
800.825, 1231.610
801.307, 1215.131
801.789, 1175.383
802.271, 1124.176
802.753, 1083.228
803.235, 1061.633
803.717, 1038.200
804.199, 971.976
804.682, 913.644
805.164, 844.961
805.646, 852.103
806.128, 840.910
806.610, 812.272
807.092, 714.128
807.574, 705.788
808.056, 661.563
808.539, 615.704
809.021, 619.797
809.503, 565.009
809.985, 539.099
810.467, 525.256
810.949, 500.055
811.431, 441.078
811.913, 395.949
812.395, 389.143
812.878, 397.687
813.360, 392.990
813.842, 371.012
814.324, 347.929
814.806, 325.130
815.288, 302.798
815.770, 279.564
816.252, 256.927
816.734, 241.383
817.217, 239.330
817.699, 234.682
818.181, 209.255
818.663, 174.830
819.145, 147.795
819.627, 138.120
820.109, 129.265
820.591, 120.824
821.073, 111.776
821.556, 100.500
822.038, 87.090
822.520, 68.808
823.002, 42.508
823.484, 20.956
823.966, 33.502
824.448, 68.155
824.930, 95.411
825.413, 103.972
825.895, 106.477
826.377, 110.563
826.859, 112.559
827.341, 103.479
827.823, 71.381
828.305, 50.949
828.787, 49.041
829.269, 56.010
829.752, 59.228
830.234, 58.022
830.716, 42.503
831.198, 2.723
831.680, 33.617
832.162, 30.254
832.644, 4.357
833.127, 16.245
833.609, 16.345
834.091, 17.828
834.573, 29.277
835.055, 42.949
835.537, 47.629
836.019, 39.410
836.501, 40.682
836.983, 58.561
837.466, 78.342
837.948, 76.854
838.430, 58.555
838.912, 33.476
839.394, 3.761
839.876, 30.155
840.358, 17.341
840.840, 11.393
841.322, 23.287
841.805, 8.904
842.287, 23.349
842.769, 8.549
843.251, 15.195
843.733, 14.493
844.215, 8.754
844.697, 17.890
845.179, 4.488
845.661, 18.884
846.144, 53.707
846.626, 84.890
847.108, 87.700
847.590, 27.152
848.072, 17.906
848.554, 17.306
849.036, 5.923
849.518, 32.457
850.000, 68.988
850.483, 76.630
850.965, 44.195
851.447, 6.975
851.929, 18.724
852.411, 59.894
852.893, 74.004
853.375, 38.348
853.857, 17.863
854.340, 17.128
854.822, 20.360
855.304, 6.303
855.786, 33.925
856.268, 52.472
856.750, 62.025
857.232, 32.613
857.714, 51.523
858.196, 50.306
858.679, 48.044
859.161, 73.384
859.643, 49.421
860.125, 74.124
860.607, 74.958
861.089, 73.377
861.571, 92.902
862.054, 101.121
862.536, 79.356
863.018, 55.706
863.500, 47.981
863.982, 62.020
864.464, 63.420
864.946, 50.339
865.428, 41.746
865.910, 65.838
866.393, 102.557
866.875, 112.336
867.357, 91.528
867.839, 71.780
868.321, 70.318
868.803, 75.202
869.285, 79.640
869.767, 84.289
870.250, 78.238
870.732, 57.469
871.214, 36.681
871.696, 25.003
872.178, 20.158
872.660, 20.396
873.142, 26.197
873.624, 37.176
874.106, 68.753
874.589, 94.689
875.071, 88.789
875.553, 51.461
876.035, 27.011
876.517, 20.068
876.999, 25.345
877.481, 45.342
877.963, 76.188
878.445, 99.331
878.928, 114.001
879.410, 108.636
879.892, 47.372
880.374, 15.312
880.856, 9.096
881.338, 45.481
881.820, 74.637
882.302, 19.317
882.784, 21.194
883.267, 17.260
883.749, 18.119
884.231, 45.587
884.713, 65.033
885.195, 77.281
885.677, 82.039
886.159, 80.484
886.641, 69.087
887.123, 53.049
887.606, 44.008
888.088, 46.280
888.570, 56.905
889.052, 86.076
889.534, 117.188
890.016, 126.174
890.498, 106.835
890.981, 99.922
891.463, 116.734
891.945, 136.072
892.427, 121.573
892.909, 86.548
893.391, 63.993
893.873, 66.024
894.355, 70.988
894.837, 68.210
895.320, 61.919
895.802, 55.545
896.284, 41.836
896.766, 48.150
897.248, 81.244
897.730, 116.017
898.212, 130.167
898.694, 128.070
899.177, 118.714
899.659, 101.739
900.141, 88.862
900.623, 100.506
901.105, 114.034
901.587, 107.235
902.069, 69.357
902.551, 50.905
903.033, 66.101
903.516, 78.259
903.998, 52.789
904.480, 0.898
904.962, 12.343
905.444, 81.112
905.926, 132.316
906.408, 95.096
906.890, 41.020
907.372, 24.576
907.855, 44.155
908.337, 59.432
908.819, 67.085
909.301, 66.250
909.783, 54.212
910.265, 35.120
910.747, 23.755
911.229, 19.522
911.711, 18.666
912.194, 22.310
912.676, 25.535
913.158, 13.079
913.640, 6.169
914.122, 14.441
914.604, 1.611
915.086, 18.301
915.568, 39.207
916.050, 53.934
916.533, 36.800
917.015, 3.861
917.497, 52.707
917.979, 79.311
918.461, 86.843
918.943, 18.448
919.425, 48.082
919.907, 38.415
920.390, 27.183
920.872, 70.751
921.354, 13.560
921.836, 56.120
922.318, 58.526
922.800, 79.092
923.282, 60.044
923.764, 53.322
924.247, 86.233
924.729, 97.329
925.211, 73.979
925.693, 95.660
926.175, 36.506
926.657, 48.253
927.139, 90.585
927.621, 69.251
928.104, 94.126
928.586, 102.747
929.068, 32.447
929.550, 93.685
930.032, 97.567
930.514, 42.665
930.996, 99.298
931.478, 53.074
931.960, 45.076
932.443, 63.999
932.925, 53.427
933.407, 88.245
933.889, 61.946
934.371, 56.032
934.853, 45.403
935.335, 30.654
935.817, 44.806
936.299, 105.978
936.782, 162.551
937.264, 144.886
937.746, 92.675
938.228, 60.987
938.710, 76.579
939.192, 96.679
939.674, 113.936
940.156, 128.168
940.638, 142.667
941.121, 160.682
941.603, 162.048
942.085, 142.945
942.567, 133.391
943.049, 100.096
943.531, 137.791
944.013, 158.320
944.495, 163.725
944.978, 105.081
945.460, 130.454
945.942, 120.401
946.424, 110.771
946.906, 146.057
947.388, 94.562
947.870, 128.797
948.352, 130.623
948.834, 146.689
949.317, 129.248
949.799, 122.732
950.281, 148.811
950.763, 157.854
951.245, 135.402
951.727, 151.692
952.209, 98.641
952.692, 106.413
953.174, 140.432
953.656, 119.417
954.138, 135.921
954.620, 138.140
955.102, 75.365
955.584, 126.723
956.066, 128.588
956.548, 95.648
957.031, 121.811
957.513, 137.760
957.995, 134.932
958.477, 133.223
958.959, 152.037
959.441, 185.448
959.923, 185.557
960.405, 154.531
960.888, 122.963
961.370, 107.805
961.852, 101.369
962.334, 101.555
962.816, 107.935
963.298, 107.673
963.780, 95.671
964.262, 83.146
964.744, 68.188
965.227, 59.833
965.709, 95.153
966.191, 156.577
966.673, 180.973
967.155, 126.055
967.637, 70.118
968.119, 60.939
968.601, 73.484
969.083, 77.121
969.566, 66.533
970.048, 58.867
970.530, 53.778
971.012, 53.466
971.494, 67.321
971.976, 85.526
972.458, 87.685
972.940, 71.655
973.422, 48.398
973.905, 0.388
974.387, 31.697
974.869, 19.008
975.351, 33.384
975.833, 62.764
976.315, 67.279
976.797, 60.189
977.279, 44.414
977.761, 26.872
978.244, 16.414
978.726, 14.137
979.208, 18.668
979.690, 45.410
980.172, 62.832
980.654, 63.214
981.136, 53.762
981.619, 40.112
982.101, 22.584
982.583, 22.141
983.065, 43.348
983.547, 62.858
984.029, 59.045
984.511, 41.729
984.993, 12.505
985.475, 33.075
985.958, 44.631
986.440, 3.274
986.922, 49.266
987.404, 68.675
987.886, 64.148
988.368, 41.683
988.850, 6.323
989.332, 15.652
989.815, 1.948
990.297, 25.718
990.779, 37.412
991.261, 38.971
991.743, 33.225
992.225, 18.048
992.707, 0.091
993.189, 25.059
993.671, 40.569
994.154, 12.213
994.636, 39.057
995.118, 62.584
995.600, 47.544
996.082, 25.065
996.564, 6.095
997.046, 23.561
997.528, 6.747
998.010, 44.785
998.493, 62.563
998.975, 43.308
999.457, 24.156
999.939, 34.301
1000.421, 50.525
1000.903, 36.649
1001.385, 2.337
1001.867, 26.201
1002.349, 51.816
1002.832, 53.044
1003.314, 18.905
1003.796, 53.541
1004.278, 7.961
1004.760, 18.141
1005.242, 25.816
1005.724, 40.133
1006.206, 11.022
1006.689, 20.003
1007.171, 30.562
1007.653, 11.918
1008.135, 43.347
1008.617, 1.718
1009.099, 1.232
1009.581, 21.892
1010.063, 4.220
1010.545, 1.605
1011.028, 30.933
1011.510, 42.235
1011.992, 20.174
1012.474, 41.998
1012.956, 14.564
1013.438, 2.335
1013.920, 39.579
1014.402, 19.473
1014.885, 42.032
1015.367, 48.345
1015.849, 19.152
1016.331, 41.730
1016.813, 47.099
1017.295, 4.530
1017.777, 51.975
1018.259, 8.221
1018.741, 0.265
1019.224, 19.261
1019.706, 19.189
1020.188, 9.950
1020.670, 29.216
1021.152, 37.299
1021.634, 35.817
1022.116, 35.160
1022.598, 40.083
1023.081, 47.424
1023.563, 61.979
1024.045, 75.138
1024.527, 70.291
1025.009, 33.363
1025.491, 19.166
1025.973, 35.121
1026.455, 59.574
1026.938, 71.969
1027.420, 75.452
1027.902, 73.817
1028.384, 67.590
1028.866, 61.625
1029.348, 52.923
1029.830, 51.315
1030.312, 17.072
1030.794, 63.158
1031.276, 89.764
1031.759, 96.713
1032.241, 28.126
1032.723, 55.505
1033.205, 47.000
1033.687, 37.003
1034.169, 80.115
1034.651, 25.405
1035.133, 67.710
1035.616, 71.208
1036.098, 92.184
1036.580, 66.811
1037.062, 65.458
1037.544, 66.389
1038.026, 68.490
1038.508, 72.413
1038.990, 83.231
1039.473, 118.067
1039.955, 144.053
1040.437, 144.313
1040.919, 127.721
1041.401, 111.933
1041.883, 96.588
1042.365, 96.596
1042.847, 117.615
1043.329, 143.847
1043.812, 179.273
1044.294, 207.777
1044.776, 196.974
1045.258, 120.837
1045.740, 83.442
1046.222, 97.990
1046.704, 129.874
1047.186, 168.921
1047.668, 208.620
1048.151, 213.739
1048.633, 191.769
1049.115, 175.853
1049.597, 125.758
1050.079, 95.649
1050.561, 139.076
1051.043, 163.313
1051.525, 169.761
1052.008, 109.857
1052.490, 138.677
1052.972, 132.380
1053.454, 124.662
1053.936, 165.890
1054.418, 116.375
1054.900, 155.403
1055.382, 159.634
1055.865, 180.837
1056.347, 159.394
1056.829, 163.122
1057.311, 145.336
1057.793, 117.155
1058.275, 102.381
1058.757, 98.969
1059.239, 102.015
1059.721, 114.755
1060.203, 120.529
1060.686, 110.673
1061.168, 96.536
1061.650, 79.223
1062.132, 61.192
1062.614, 65.843
1063.096, 93.719
1063.578, 118.093
1064.060, 100.424
1064.543, 93.965
1065.025, 51.223
1065.507, 95.441
1065.989, 117.015
1066.471, 120.754
1066.953, 46.029
1067.435, 72.790
1067.917, 58.920
1068.400, 43.349
1068.882, 84.469
1069.364, 21.313
1069.846, 56.037
1070.328, 57.722
1070.810, 74.388
1071.292, 83.462
1071.774, 65.938
1072.256, 31.285
1072.739, 46.790
1073.221, 105.360
1073.703, 138.191
1074.185, 91.576
1074.667, 46.111
1075.149, 76.946
1075.631, 137.600
1076.113, 158.296
1076.596, 116.863
1077.078, 102.045
1077.560, 120.280
1078.042, 141.143
1078.524, 136.941
1079.006, 120.023
1079.488, 102.253
1079.970, 86.471
1080.453, 83.122
1080.935, 108.168
1081.417, 129.068
1081.899, 138.797
1082.381, 143.185
1082.863, 153.793
1083.345, 168.191
1083.827, 177.792
1084.309, 181.008
1084.792, 178.677
1085.274, 160.114
1085.756, 146.370
1086.238, 153.872
1086.720, 180.269
1087.202, 192.969
1087.684, 191.643
1088.166, 195.304
1088.648, 207.451
1089.131, 198.764
1089.613, 232.492
1090.095, 255.967
1090.577, 269.745
1091.059, 244.641
1091.541, 269.813
1092.023, 274.877
1092.505, 279.147
1092.988, 311.500
1093.470, 292.205
1093.952, 324.154
1094.434, 335.690
1094.916, 356.616
1095.398, 357.310
1095.880, 364.300
1096.362, 374.439
1096.844, 416.275
1097.327, 421.288
1097.809, 397.404
1098.291, 385.099
1098.773, 391.601
1099.255, 399.298
1099.737, 384.958
1100.219, 379.344
1100.701, 414.157
1101.183, 479.541
1101.666, 500.235
1102.148, 474.429
1102.630, 445.653
1103.112, 426.432
1103.594, 417.340
1104.076, 421.203
1104.558, 434.289
1105.040, 454.256
1105.523, 491.019
1106.005, 499.955
1106.487, 471.997
1106.969, 445.847
1107.451, 454.879
1107.933, 480.066
1108.415, 485.604
1108.897, 476.108
1109.380, 466.708
1109.862, 458.715
1110.344, 458.263
1110.826, 470.542
1111.308, 484.246
1111.790, 481.140
1112.272, 467.406
1112.754, 474.487
1113.236, 503.751
1113.719, 518.050
1114.201, 472.148
1114.683, 431.685
1115.165, 433.670
1115.647, 462.660
1116.129, 480.044
1116.611, 485.708
1117.093, 479.073
1117.575, 457.063
1118.058, 435.685
1118.540, 426.642
1119.022, 425.996
1119.504, 434.474
1119.986, 452.881
1120.468, 449.985
1120.950, 422.122
1121.432, 396.431
1121.915, 385.647
1122.397, 382.319
1122.879, 377.099
1123.361, 371.677
1123.843, 368.741
1124.325, 367.302
1124.807, 372.614
1125.289, 386.369
1125.771, 402.904
1126.254, 423.637
1126.736, 441.786
1127.218, 434.498
1127.700, 408.465
1128.182, 393.044
1128.664, 424.078
1129.146, 431.302
1129.628, 386.308
1130.110, 331.669
1130.593, 330.099
1131.075, 369.199
1131.557, 390.779
1132.039, 389.622
1132.521, 380.848
1133.003, 370.088
1133.485, 356.947
1133.967, 338.012
1134.450, 318.109
1134.932, 316.050
1135.414, 330.458
1135.896, 326.889
1136.378, 291.905
1136.860, 266.310
1137.342, 305.766
1137.824, 351.622
1138.307, 345.102
1138.789, 289.012
1139.271, 239.112
1139.753, 192.874
1140.235, 178.415
1140.717, 223.544
1141.199, 278.061
1141.681, 281.885
1142.163, 259.613
1142.646, 246.008
1143.128, 251.424
1143.610, 250.963
1144.092, 244.946
1144.574, 232.044
1145.056, 198.161
1145.538, 165.195
1146.020, 184.713
1146.502, 234.787
1146.985, 259.545
1147.467, 209.751
1147.949, 183.999
1148.431, 195.701
1148.913, 216.766
1149.395, 219.499
1149.877, 209.253
1150.359, 177.251
1150.842, 214.564
1151.324, 234.995
1151.806, 239.545
1152.288, 180.828
1152.770, 203.907
1153.252, 195.714
1153.734, 184.615
1154.216, 219.281
1154.698, 169.659
1155.181, 203.618
1155.663, 204.414
1156.145, 220.317
1156.627, 203.172
1157.109, 196.920
1157.591, 225.594
1158.073, 235.848
1158.555, 216.826
1159.037, 234.973
1159.520, 185.298
1160.002, 196.445
1160.484, 234.189
1160.966, 217.795
1161.448, 236.496
1161.930, 240.509
1162.412, 180.756
1162.894, 231.627
1163.377, 234.481
1163.859, 188.184
1164.341, 235.948
1164.823, 199.109
1165.305, 195.043
1165.787, 211.856
1166.269, 203.187
1166.751, 232.469
1167.234, 228.374
1167.716, 219.529
1168.198, 225.574
1168.680, 221.811
1169.162, 219.251
1169.644, 184.991
1170.126, 223.870
1170.608, 244.770
1171.090, 248.023
1171.573, 181.799
1172.055, 205.088
1172.537, 192.256
1173.019, 176.326
1173.501, 190.156
1173.983, 185.202
1174.465, 176.619
1174.947, 157.657
1175.430, 140.120
1175.912, 126.100
1176.394, 117.086
1176.876, 119.338
1177.358, 125.044
1177.840, 119.529
1178.322, 103.835
1178.804, 102.082
1179.286, 133.894
1179.769, 139.306
1180.251, 93.826
1180.733, 44.004
1181.215, 74.287
1181.697, 142.001
1182.179, 174.125
1182.661, 158.976
1183.143, 130.675
1183.625, 85.037
1184.108, 48.796
1184.590, 31.077
1185.072, 26.013
1185.554, 22.445
1186.036, 22.374
1186.518, 32.043
1187.000, 56.746
1187.482, 73.567
1187.965, 77.470
1188.447, 71.936
1188.929, 49.944
1189.411, 26.718
1189.893, 60.217
1190.375, 125.352
1190.857, 152.062
1191.339, 97.003
1191.822, 48.919
1192.304, 31.445
1192.786, 21.998
1193.268, 7.620
1193.750, 9.618
1194.232, 30.394
1194.714, 49.168
1195.196, 43.407
1195.678, 29.546
1196.161, 77.014
1196.643, 67.289
1197.125, 42.139
1197.607, 33.768
1198.089, 39.592
1198.571, 53.008
1199.053, 70.288
1199.535, 72.785
1200.017, 27.894
1200.500, 1.050
1200.982, 12.910
1201.464, 37.727
1201.946, 31.585
1202.428, 4.496
1202.910, 21.243
1203.392, 77.566
1203.874, 117.082
1204.357, 96.418
1204.839, 70.688
1205.321, 54.452
1205.803, 43.800
1206.285, 0.404
1206.767, 49.727
1207.249, 76.614
1207.731, 81.785
1208.214, 2.248
1208.696, 32.038
1209.178, 18.006
1209.660, 2.175
1210.142, 47.456
1210.624, 19.788
1211.106, 24.349
1211.588, 23.987
1212.070, 43.971
1212.552, 19.855
1213.035, 9.329
1213.517, 42.899
1213.999, 52.034
1214.481, 0.368
1214.963, 28.343
1215.445, 25.793
1215.927, 17.011
1216.409, 5.453
1216.892, 1.391
1217.374, 24.206
1217.856, 39.391
1218.338, 28.299
1218.820, 0.688
1219.302, 14.274
1219.784, 18.943
1220.266, 24.223
1220.749, 34.959
1221.231, 36.802
1221.713, 7.557
1222.195, 22.512
1222.677, 52.263
1223.159, 14.123
1223.641, 7.499
1224.123, 13.490
1224.605, 42.881
1225.088, 18.801
1225.570, 27.007
1226.052, 36.572
1226.534, 1.266
1227.016, 48.747
1227.498, 14.040
1227.980, 18.288
1228.462, 12.145
1228.944, 5.786
1229.427, 9.889
1229.909, 3.509
1230.391, 37.379
1230.873, 68.126
1231.355, 50.850
1231.837, 3.965
1232.319, 6.786
1232.801, 45.564
1233.284, 76.085
1233.766, 76.404
1234.248, 75.355
1234.730, 79.839
1235.212, 83.171
1235.694, 74.492
1236.176, 61.986
1236.658, 85.373
1237.141, 130.204
1237.623, 149.432
1238.105, 98.576
1238.587, 61.974
1239.069, 50.267
1239.551, 53.223
1240.033, 70.578
1240.515, 93.742
1240.997, 95.127
1241.479, 81.782
1241.962, 76.711
1242.444, 94.760
1242.926, 112.794
1243.408, 129.543
1243.890, 143.781
1244.372, 155.323
1244.854, 161.714
1245.336, 154.974
1245.819, 145.730
1246.301, 142.489
1246.783, 163.109
1247.265, 160.414
1247.747, 120.877
1248.229, 89.725
1248.711, 128.021
1249.193, 190.078
1249.676, 203.704
1250.158, 176.850
1250.640, 146.636
1251.122, 105.436
1251.604, 100.210
1252.086, 142.438
1252.568, 187.084
1253.050, 185.670
1253.532, 167.271
1254.015, 157.422
1254.497, 155.154
1254.979, 152.985
1255.461, 146.032
1255.943, 136.292
1256.425, 118.525
1256.907, 100.576
1257.389, 102.076
1257.871, 116.310
1258.354, 147.180
1258.836, 183.004
1259.318, 207.711
1259.800, 238.100
1260.282, 226.246
1260.764, 174.067
1261.246, 114.589
1261.728, 58.333
1262.211, 19.990
1262.693, 24.525
1263.175, 58.710
1263.657, 57.588
1264.139, 22.351
1264.621, 23.573
1265.103, 67.465
1265.585, 107.118
1266.068, 107.205
1266.550, 93.909
1267.032, 70.429
1267.514, 48.674
1267.996, 63.895
1268.478, 109.201
1268.960, 125.835
1269.442, 107.105
1269.924, 91.573
1270.407, 110.832
1270.889, 127.895
1271.371, 128.880
1271.853, 117.828
1272.335, 100.651
1272.817, 79.753
1273.299, 61.246
1273.781, 46.866
1274.264, 56.175
1274.746, 133.294
1275.228, 184.644
1275.710, 182.189
1276.192, 149.283
1276.674, 113.580
1277.156, 81.715
1277.638, 71.584
1278.120, 84.056
1278.603, 87.862
1279.085, 64.000
1279.567, 51.492
1280.049, 48.336
1280.531, 59.961
1281.013, 90.173
1281.495, 123.053
1281.977, 138.261
1282.459, 133.470
1282.942, 117.535
1283.424, 88.554
1283.906, 57.424
1284.388, 23.395
1284.870, 0.585
1285.352, 16.885
1285.834, 45.071
1286.316, 58.638
1286.799, 57.647
1287.281, 58.026
1287.763, 60.082
1288.245, 62.758
1288.727, 66.701
1289.209, 63.989
1289.691, 34.627
1290.173, 6.853
1290.656, 15.131
1291.138, 41.447
1291.620, 36.746
1292.102, 5.205
1292.584, 1.748
1293.066, 25.747
1293.548, 48.344
1294.030, 31.754
1294.512, 11.924
1294.995, 0.000
##END=



